timestamp,elapsed_time,linear_acc_x,linear_acc_y,linear_acc_z,angular_vel_x,angular_vel_y,angular_vel_z,orientation_x,orientation_y,orientation_z,orientation_w
288.5,2.4705777168273926,-0.01632745137414235,-0.004633727918129763,9.808590855990996,-0.00020905685836805505,0.0001409461817450636,-0.00024827661003419104,3.2554721062838993e-16,1.640899256658771e-10,-2.1024232347032905e-18,1.0
288.51,2.4709463119506836,-0.006683195227638643,-0.030920243573189593,9.80571157739276,-9.05552542242167e-05,-4.021454782862481e-05,-0.00024192883431206386,3.1118592329256676e-16,1.6408998788487648e-10,-2.0956138739470585e-18,1.0
288.52,2.471214532852173,0.00594345340174284,-0.008252471384804163,9.816255896513912,-0.00013097052383916755,3.6331330387139286e-05,3.812450599036409e-05,2.9686697646207045e-16,1.640900500729917e-10,-2.0899633826163384e-18,1.0
288.53,2.471431016921997,-0.018853462972086683,0.011556399787211222,9.779681956353324,-0.00026968566016654516,3.474485315903245e-05,0.0001551170071224542,2.8252855913962653e-16,1.6409011229524324e-10,-2.079588540310775e-18,1.0
288.54,2.4716267585754395,-0.004434588911835666,-0.0018611770371986134,9.811337192143615,0.0003396027016814473,0.00020373789648585086,-7.277023850226482e-05,2.6819156823001734e-16,1.6409017449318655e-10,-2.071054432571366e-18,1.0
288.55,2.471889019012451,0.015849094774198776,0.01245692298567465,9.787510393144462,-4.901426956302159e-05,6.766043900355065e-05,0.0001691240866398059,2.5384400302284164e-16,1.6409023669957705e-10,-2.066565329150146e-18,1.0
288.56,2.472168445587158,-0.01084423442201007,-0.014891447929065348,9.822255290651231,-0.00011429641636518185,-5.357498357114007e-05,-0.00014424552741103838,-4.2843755490994804e-16,1.64088400044848e-10,-2.0622785643723324e-18,1.0
288.57,2.4723658561706543,-0.008260592980135338,0.006632803502396547,9.805452191360558,0.00031755065843184696,0.00021661278515520952,-5.577994192523813e-05,-4.284381308632981e-16,1.6408846226281092e-10,-2.058801798539048e-18,1.0
288.58,2.47255539894104,-0.014703883176887755,-0.012600204950883844,9.780094228690894,-0.00025581831153524974,-9.528181403657218e-05,-0.0002994565478834566,-4.2844160268790206e-16,1.640885244831061e-10,-2.0524920713932575e-18,1.0
288.59,2.472740411758423,-0.0024848039673692345,-0.01596006021042063,9.821212698326692,-5.705721526408841e-06,-0.00019840125977287884,-0.0002520602769677762,-4.284477721718627e-16,1.6408858669010985e-10,-2.0424970432491166e-18,1.0
288.6,2.4802346229553223,0.026565618150872588,0.011865518089543602,9.80320322662057,-0.00044921641257753654,0.00012645641076506684,-7.813266970252601e-05,-4.2842395842860953e-16,1.6408864890031113e-10,-2.0382829686602846e-18,1.0
288.61,2.49019193649292,0.005023820604846898,-0.020772682944936217,9.801383696940936,-1.7995504354416717e-05,-0.00022924113043911693,0.0002873314445279402,-4.2841122478648086e-16,1.6408871110476742e-10,-2.033150497321224e-18,1.0
288.62,2.5004398822784424,0.007533018626923084,-0.006559388834181802,9.799055351459307,1.9718176678027348e-05,5.824506959260641e-05,-0.00027343485160484266,-4.140502878858673e-16,1.6408877323451396e-10,-2.0274743524078535e-18,1.0
288.63,2.5106041431427,-0.03636557443834993,-0.023855811566332766,9.821579987899534,5.234918740156957e-05,-0.00015319771402281677,-2.311719623848973e-05,-4.1403379571326935e-16,1.6408883545391663e-10,-2.0195935384306738e-18,1.0
288.64,2.520217180252075,-0.013632420687675235,-0.017458841243062774,9.784711707589954,-0.00033760814175947356,0.00017560678109829287,0.00023130032939066558,-4.1401020732193625e-16,1.640888976701643e-10,-2.013282869034686e-18,1.0
288.65,2.530219554901123,-0.009341409773397712,-0.020249198178722422,9.804558689260174,-3.538937066669753e-05,-0.0003584564847764364,-2.2877248373841284e-05,-4.1398525898827974e-16,1.6408895987108956e-10,-2.0062904057015556e-18,1.0
288.66,2.5404138565063477,-0.02892888019867144,0.00022876097868561638,9.809096081220014,5.696476835593283e-05,-7.380050173248541e-06,0.00022307970848183182,9.362058206037192e-16,1.640890221233028e-10,-1.9984897199971914e-18,1.0
288.67,2.550241708755493,0.017599955089654975,-0.000574568456536068,9.807066673991118,5.140017197588148e-05,0.00045183335093772984,-1.4625852007554242e-05,9.218476627732194e-16,1.6408908432246906e-10,-1.9909254249448994e-18,1.0
288.68,2.560189723968506,-0.004920580429198681,-0.004585775178619047,9.761995996898683,0.00012362751493096748,-3.84881488371916e-05,0.0001574424602658501,9.074793281316e-16,1.64089146532424e-10,-1.976852683495395e-18,1.0
288.69,2.5703225135803223,-0.004271205711422973,-0.006627115402516687,9.78344042117848,-1.3559443751657983e-05,7.540058960956602e-05,-6.36843987651061e-05,8.931304235823208e-16,1.6408920874758915e-10,-1.967487609487339e-18,1.0
288.7,2.580317735671997,-0.0013963207069710752,-0.004741719748940085,9.817178318729757,-6.210664121901352e-05,7.247996615545403e-05,0.00011601842530002325,8.787764208523488e-16,1.6408927095647334e-10,-1.9576911710870624e-18,1.0
288.71,2.590224027633667,0.01984888097701848,-0.01801444312149472,9.766213529700194,-0.00010272296191040758,0.00020822745255465698,0.00041473855694827325,8.644456956856606e-16,1.6408933314781642e-10,-1.954741935771245e-18,1.0
288.72,2.600400447845459,-0.015276939159423639,-0.019433980780627004,9.83383159492003,-2.6612632528274243e-05,0.00015562135947383153,-0.00011423771635135357,1.7500121397736523e-16,1.6408750474509496e-10,-1.9460698905245614e-18,1.0
288.73,2.610236167907715,0.024705108436239073,0.016012767701502912,9.810468619502627,-0.00017351209463180593,-0.00011217897527882718,-0.00027876134567815606,1.7500605483886804e-16,1.64087566948866e-10,-1.9304974085132242e-18,1.0
288.74,2.620246171951294,0.004622285994290904,0.02487978320394789,9.821360005101784,0.00044580375752682023,-5.8255854434021525e-05,0.00010993757174389356,1.8935376834766316e-16,1.640876291704232e-10,-1.9252801708340038e-18,1.0
288.75,2.630200147628784,-0.033548235987835816,-0.014527956752502508,9.80985282629091,-4.630077417814454e-05,5.2542049368534664e-05,0.00028963672396698284,2.0370363324580214e-16,1.6408769139180474e-10,-1.925564992095576e-18,1.0
288.76,2.640444755554199,0.005168635790746735,0.011111925144569225,9.796543225712606,0.00017672179838438645,-2.2380919134140325e-05,-2.9267653530528874e-05,-4.642027802751757e-16,1.640858547014792e-10,-1.9188361851023687e-18,1.0
288.77,2.650261402130127,0.008861511521213174,-0.006528670077843343,9.798189551886336,0.00013561058363300188,-6.753926043045036e-05,-9.562047144511882e-05,-4.570291814972836e-16,1.6408970639873753e-10,-1.9147292538208904e-18,1.0
288.78,2.660191297531128,-0.027630890753720612,-0.00022697430453060986,9.785759405204503,0.00020532616479853306,3.844248697237879e-05,-0.00015611648795091346,-4.4268024524156354e-16,1.6408976858605606e-10,-1.9066667225561178e-18,1.0
288.79,2.670341968536377,-0.03470133009402944,-0.02158199949668078,9.807703504236722,0.00012344415533437045,-0.0002146152866756493,0.0002097167014359047,-4.283471846797874e-16,1.6408983082430563e-10,-1.899802823083103e-18,1.0
288.8,2.6802561283111572,0.021046043518534664,0.015033004511811119,9.834065860050153,-0.00022068743900550375,-0.00017726663558728368,-0.00018321323680456264,-4.140083026116966e-16,1.6408989298268293e-10,-1.8945680182714947e-18,1.0
288.81,2.6902151107788086,0.018000447109015157,-0.032408448153791264,9.827301975998749,0.00016122138056966172,4.328857351070414e-06,-0.00011299895219985773,-3.996451827962077e-16,1.6408995518002211e-10,-1.8892422987047897e-18,1.0
288.82,2.700291633605957,-0.03060728966685023,0.0010430349030966918,9.78222857941877,-0.0002892339569406327,-0.0001479887282514736,-0.0004131706125616006,-3.852759993551899e-16,1.6409001737023503e-10,-1.8800704262251857e-18,1.0
288.83,2.710526704788208,-0.0011119974564999912,-0.02216197933421429,9.825397374926487,2.3619900464697664e-05,0.0001740634567434222,0.0001914153002896405,-3.7090947175586444e-16,1.6409007956719258e-10,-1.8651246604226175e-18,1.0
288.84,2.7201833724975586,0.0003420647804798872,0.03634792765718248,9.802883992305949,-0.00011255734907969137,-0.0003173901521146172,0.00010328508766466979,3.1856437134250123e-16,1.6408825118276985e-10,-1.8551626649442245e-18,1.0
288.85,2.730236768722534,-0.008593341379196998,-6.344875306844756e-05,9.815524924603846,0.0004592096244062925,-0.00021273445863022978,-0.000149642685370887,-3.4216021709732815e-16,1.6409020399565246e-10,-1.8487821261260005e-18,1.0
288.86,2.7404253482818604,-0.013479329360053638,0.011976295420660801,9.807237361348168,-9.498661037554995e-05,0.00038049947368085384,-2.5363469178052252e-05,3.4729981589573827e-16,1.6408837562435334e-10,-1.8423033877931525e-18,1.0
288.87,2.7501957416534424,-0.026597574012677545,-0.007384313795166713,9.818739632872768,-0.0004776445815070993,3.6834103430410156e-06,2.342808138260125e-05,3.616561517119877e-16,1.6408843782947448e-10,-1.841993254119869e-18,1.0
288.88,2.7602035999298096,0.0037035602314685295,-0.020202296142479332,9.800353889344153,0.00023874118197081965,9.969463469738392e-05,0.0003766575109665567,3.760044902539954e-16,1.6408850003642098e-10,-1.8342395389896604e-18,1.0
288.89,2.7703170776367188,0.0006192933848535393,0.010769583067745093,9.813258149648437,-7.45285726699437e-05,0.0001088066659748522,-0.000261426826518011,3.9035558273983857e-16,1.6408856223816464e-10,-1.8261367952689252e-18,1.0
288.9,2.7802600860595703,-0.011491191132961383,-0.028067179442622724,9.79777738938333,7.804414687099884e-05,0.00012581763785497602,0.0003108989514544206,4.0469387505573486e-16,1.6408862444189499e-10,-1.8291714051826928e-18,1.0
288.91,2.7901570796966553,0.0030721873807356536,-0.01771742236181672,9.81423347283802,0.0003777302204211797,0.00015108159448235786,-7.257077637998671e-05,4.118581218557433e-16,1.6408867829347735e-10,-1.8280769673660816e-18,1.0
288.92,2.800323724746704,0.02581484238107991,0.0016101386217587282,9.78862484787825,-0.00010402759391537727,-0.00013294718481421294,9.193654403438661e-05,3.975011784419538e-16,1.6408874050326749e-10,-1.8287021541486574e-18,1.0
288.93,2.810241937637329,-0.008429189352952674,-0.006189099881144351,9.804127945854226,0.0001850434642456522,-0.00016034454296233092,0.0001409629264269667,3.8315038216169124e-16,1.6408880271507726e-10,-1.832187716724913e-18,1.0
288.94,2.820167064666748,0.00082138815831451,0.028248538159417337,9.777105383704297,9.761306995339681e-05,-0.00010114034534181429,0.0004305221609592778,3.6880335452731744e-16,1.6408886493765926e-10,-1.8185014278536663e-18,1.0
288.95,2.8302359580993652,-0.004504741179763447,0.02142079243506672,9.769147454229097,4.2212567818229354e-05,0.00010635804608403023,-0.0001595457587376894,3.544453567440089e-16,1.6408892716018097e-10,-1.812353174003579e-18,1.0
288.96,2.8404290676116943,-0.010883181606415666,0.01231656352208054,9.79435600252804,-0.00029839849819043114,0.0001490638029673702,1.7348483919277643e-05,3.401016569004055e-16,1.6408898936303176e-10,-1.811318564235684e-18,1.0
288.97,2.850167989730835,-0.006391716203212551,-0.018047151765125845,9.815295823045439,1.7791846937326175e-05,-0.00010967225652394006,0.00015363978498669342,-3.4934260529181823e-16,1.6408716102019084e-10,-1.803141897112567e-18,1.0
288.98,2.86020827293396,-0.020487715454763116,-0.0035845134752494887,9.793039156340816,0.00017799549690034213,0.00021505995163675806,-8.246103781937444e-05,-3.6369680631016095e-16,1.6408722324085292e-10,-1.7976362960707626e-18,1.0
288.99,2.8703830242156982,-0.011328223704491604,0.007820144033930273,9.825294964350778,-1.8382174572469684e-05,5.7881252342802006e-05,0.00010851686271854724,-3.780365145841197e-16,1.6408728546061555e-10,-1.7890209224372953e-18,1.0
289.0,2.88019061088562,-0.0038851711408864867,0.020646575263673802,9.796266393116516,-0.00021398058844888557,0.0004666098037016,0.00029718815408816734,-3.923635385577478e-16,1.640873476692911e-10,-1.780405637350803e-18,1.0
289.01,2.89029860496521,0.016089708512553647,0.0015362304879878957,9.81819685110748,-9.874932318410819e-05,-0.00016878453188910907,-0.00018832398046901688,-4.0670605221809664e-16,1.640874098785517e-10,-1.769755873432039e-18,1.0
289.02,2.9003748893737793,0.030303531557909776,0.000728096000070388,9.781780514104986,5.116329742528084e-05,2.7554275015561025e-05,-0.00016759871726982953,-4.2105245811639753e-16,1.6408747209831345e-10,-1.7617637781490975e-18,1.0
289.03,2.9102444648742676,0.016125106855164335,-0.006163162204164323,9.828213362500891,-0.00011683691102430698,-3.059518804623743e-05,-7.528427828151298e-05,-4.354124264063859e-16,1.6408753431076505e-10,-1.7520331835257726e-18,1.0
289.04,2.9202842712402344,-0.021188625887046397,-0.013828074058378244,9.791077399589694,7.145192342158002e-06,-0.00028044941489308576,-2.7004820541675002e-05,-4.497739499264387e-16,1.640875965220002e-10,-1.741034624121841e-18,1.0
289.05,2.9301888942718506,-6.452022009266534e-05,-0.02430974895014412,9.803378008859294,0.0003906077621869871,0.000318188764614556,-0.0005194302226815418,-4.641309245220101e-16,1.6408765873541591e-10,-1.7365577745706598e-18,1.0
289.06,2.94033145904541,-0.02027793746634883,0.0008085607887744021,9.820960335811293,-0.00018561937731475947,0.00039384719944542877,-0.0004022926257270572,2.109547963509882e-16,1.6408961153575171e-10,-1.7317750956924662e-18,1.0
289.07,2.950225830078125,-0.02812905053019359,0.0008499963821526642,9.794001069329587,-0.0001674442144504247,0.0001525400821910874,0.00020033424011052015,2.1814659183487952e-16,1.6408588424451855e-10,-1.7247626298418397e-18,1.0
289.08,2.960211992263794,0.016203604038524156,-0.022546284175662675,9.805720170469051,-0.00022992985208456905,-0.00025039156912223695,6.083458565346302e-06,2.3248393825728804e-16,1.6408594645179987e-10,-1.7168757857660434e-18,1.0
289.09,2.9702930450439453,0.013060547867273837,0.01831354767382812,9.786575271034998,0.000342693255693282,0.0003424236837200474,0.00040502746646139395,2.4682427529293157e-16,1.6408600866141134e-10,-1.7109120891878401e-18,1.0
289.1,2.980214834213257,-0.011033867399232284,0.01990725122766949,9.779903607140358,0.0002506881766304118,-0.0004017316757206794,0.0002226369590220438,2.6117390228726763e-16,1.6408607086483069e-10,-1.7016681739845653e-18,1.0
289.11,2.990194082260132,0.01992058347861985,0.03630056661531362,9.798981366251569,9.774612866322722e-05,-8.507496119298608e-05,-0.000275164014352586,2.7554168823864865e-16,1.640861330660374e-10,-1.6928940294139254e-18,1.0
289.12,3.000385284423828,0.005982885087587389,-0.0031136931966749422,9.804482532661655,0.0003260442789363465,-0.0002581236216775925,-0.0001472758704134669,2.899117137841949e-16,1.640861952588862e-10,-1.6828513337257659e-18,1.0
289.13,3.0103061199188232,-0.029661574641699884,-0.02379105120994367,9.795092288250414,0.00023785840537128526,-0.0002469503589267758,3.694852943950795e-05,-3.779902244021798e-16,1.6408815634872564e-10,-1.6716882430017652e-18,1.0
289.14,3.020219326019287,0.0004955729759238014,0.004184757317552258,9.815349252641964,-1.5233415804661118e-05,5.661434569395733e-05,9.502904435249348e-05,-3.6360718953014455e-16,1.6408821854756967e-10,-1.661759187510408e-18,1.0
289.15,3.030219554901123,-0.009979489217011556,-0.02686153253664017,9.791748776649138,9.747239490150298e-05,-0.00010226123696327175,-0.00013025652780510188,-3.4923187999865096e-16,1.6408828075291415e-10,-1.656162077192782e-18,1.0
289.16,3.040294647216797,0.005563219319946016,-0.023097223108205115,9.808008685677475,-0.00036404973866864483,-0.00012598436814185187,0.0003132834082101584,-3.348550633701391e-16,1.6408834296155118e-10,-1.6512584548263177e-18,1.0
289.17,3.050222396850586,0.002412894379157789,-0.00282482231983608,9.793006707242963,0.00034028599413074665,-0.00035102558613042917,0.00033804814749793555,-3.204917157346198e-16,1.640884051708868e-10,-1.652075053987303e-18,1.0
289.18,3.060236692428589,0.03257039376504248,0.02018542719754967,9.813196661591292,0.00035254160020196403,-0.0002699610498645177,-2.3846931956163234e-05,-3.061360483867255e-16,1.6408846738887875e-10,-1.6426008970206916e-18,1.0
289.19,3.07041597366333,0.009658003349764065,-0.013869680763493627,9.791731017501046,0.00018516803773460403,-0.00010917247749985322,1.8049650550605454e-05,-2.9179850615538363e-16,1.640885295910474e-10,-1.634412758042316e-18,1.0
289.2,3.0802266597747803,-0.0012674273272391527,0.0023226367577155967,9.799300247432464,0.00010361651533665237,0.00014162060983908815,0.0004754834572907735,-2.7745328056772476e-16,1.6408859180433734e-10,-1.6333199799222734e-18,1.0
289.21,3.090221643447876,-0.012481052202814362,-0.008014573891529632,9.793603105302887,0.00020390002867029506,0.00013145907928306837,7.048192453292741e-05,-2.630976072479268e-16,1.6408865401894395e-10,-1.6369482211962937e-18,1.0
289.22,3.1003477573394775,-0.02166800456204228,0.010348092844262396,9.82691772058559,0.0001560658454193885,-7.3879812645305146e-06,8.355459422680835e-05,-2.487316634780192e-16,1.6408871624922247e-10,-1.6300978861144724e-18,1.0
289.23,3.110294818878174,0.0013554537055301098,0.04501775778232922,9.80705206213182,-0.00034394886379288087,0.00016918589587915203,-2.9967082191940397e-05,-2.4155167799496357e-16,1.6408877013421825e-10,-1.6185471832135431e-18,1.0
289.24,3.120192527770996,0.002280186209615379,-0.030159463965473907,9.848870473527906,-4.922240461186563e-05,-0.00020783627527661832,9.107692893584905e-05,-2.4152952623728414e-16,1.6408883235316603e-10,-1.6098985742770476e-18,1.0
289.25,3.1303420066833496,0.011771077039423525,0.019938508023354597,9.789023318839588,7.449402558393694e-05,0.0001507701484371874,0.00012515992552259136,-2.415083274135637e-16,1.6408889457166012e-10,-1.5959616590653135e-18,1.0
289.26,3.1402883529663086,0.012043826279793468,-0.005740033940607869,9.794050525575251,-2.8213981273578404e-06,3.575498067054029e-05,-0.00013865810975213623,-2.4149473529891857e-16,1.640889567830636e-10,-1.5822988976663716e-18,1.0
289.27,3.1502013206481934,-0.016899569412246334,0.014496656918798928,9.80297024186986,0.0005397587425534156,-4.2134847866075444e-05,6.162095371036923e-05,-2.4147730384648836e-16,1.6408901902318236e-10,-1.5694036629700683e-18,1.0
289.28,3.160531759262085,0.0002560607189366794,-0.011504372837981844,9.823598105665221,0.00014667918825140978,0.00019865069169310823,0.0001183878322395567,-2.4147403873237065e-16,1.6408908123531397e-10,-1.555781687802021e-18,1.0
289.29,3.1702992916107178,-0.006397293432881243,-0.0012082265868780116,9.812058017088386,3.898762211707133e-05,2.6664476125127654e-05,0.00019779614671379668,-2.48624805219631e-16,1.6408915171366533e-10,-1.5412963397088611e-18,1.0
289.3,3.1802358627319336,0.0024849888812258003,-0.007619535101634066,9.81191179551597,5.847019985942877e-05,-0.00016989836302089335,-4.983062237260274e-05,-2.4861288049322614e-16,1.6408921393013506e-10,-1.5347364647771964e-18,1.0
289.31,3.190229892730713,-0.002205232408405934,0.016454241056914325,9.802528361510541,-0.00015933235836549533,-2.148813173319129e-05,0.000158762483535488,-2.4859942309165637e-16,1.6408927612958365e-10,-1.5293644752444847e-18,1.0
289.32,3.2003579139709473,-0.010595563187330457,-0.027657216819416273,9.800386775774253,8.141919855315139e-05,0.0002297730124709544,-0.0001270566413210064,-2.4859139966767716e-16,1.640893383368619e-10,-1.5215519420506261e-18,1.0
289.33,3.2102396488189697,-0.0008072971214580144,-0.010319637138991722,9.789173634382584,-0.00013022651572763868,-9.022947097596036e-06,0.00023148033748985483,4.336792770387362e-16,1.6408750164029267e-10,-1.5115676981053214e-18,1.0
289.34,3.2201764583587646,-0.01489155082018515,-0.00773125588050163,9.79946944629894,5.78641850945714e-05,0.00010134012146244767,4.0115053644282035e-05,4.480504568124439e-16,1.6408756384358282e-10,-1.495274641374371e-18,1.0
289.35,3.230334758758545,-0.011735099974883072,0.0027892284707217887,9.794631216554263,-0.0002225070071986946,0.0004489519967495196,-0.00014681237780302364,4.624287851762539e-16,1.640876260623358e-10,-1.488363478168819e-18,1.0
289.36,3.2403206825256348,-0.04552016960797732,0.03596204751496868,9.828832557552937,1.6401547198633692e-05,-0.00011622777772887212,0.00016525678294414663,4.768125447367629e-16,1.6408768829157174e-10,-1.4815827031979173e-18,1.0
289.37,3.2502217292785645,-0.022263170329946885,0.016976779009087672,9.80340246482131,8.032375446723878e-05,-0.00022634096928967425,-0.00012270443506502904,4.911856101234107e-16,1.6408775049703117e-10,-1.4772146714348053e-18,1.0
289.38,3.260322332382202,0.01303662114076796,0.004646346501631899,9.77200177648753,-5.172219944393958e-05,-0.00023350062381273577,0.00010143157799177748,5.055545172378704e-16,1.6408781270087254e-10,-1.4695226919547751e-18,1.0
289.39,3.270339250564575,-0.0006170999975134007,-0.015782785949148614,9.766647470854178,-0.00019178275689305343,-0.00014004732634944383,0.00016283023226855425,5.199210513237996e-16,1.640878749078221e-10,-1.4616021450578384e-18,1.0
289.4,3.2802064418792725,-0.006111974864130551,-0.017868561627310032,9.81677941129045,-0.0003620831130149262,5.4147377771446085e-05,-0.0003675104982849658,5.0559707529577e-16,1.6408793708230537e-10,-1.4547938191703349e-18,1.0
289.41,3.290252447128296,0.017424863523742153,0.010335459821316947,9.807989135936683,6.325882024825301e-05,-0.00019054984607998955,-0.00024227205248580008,4.912584882291627e-16,1.6408799931295211e-10,-1.4455558286565975e-18,1.0
289.42,3.3003625869750977,0.003438902916745249,0.0021651730712063375,9.782042915872625,-0.0003034424327364024,-0.00010594161500775335,0.00042487282340429914,4.769132894182819e-16,1.6408806151869775e-10,-1.4374217158279526e-18,1.0
289.43,3.310239315032959,0.016861833273290935,-0.021135891341653796,9.79483892704044,-3.103823107446702e-05,-4.201837601857901e-06,-0.00015390873115474343,-2.0535990791168098e-16,1.6408622485779701e-10,-1.4312946764037864e-18,1.0
289.44,3.320173501968384,-0.002787085900050595,-0.05678753751835864,9.818446362434072,-4.481639324019308e-05,-3.4411094137183406e-05,-0.000323702882521039,-2.1969399284090306e-16,1.6408628706752946e-10,-1.4277155791164358e-18,1.0
289.45,3.330315351486206,-0.034016812263880945,-0.01356818691862608,9.827134589281535,-0.0001921482897371494,-0.00021114004998474802,-0.0001449543555470313,-2.3401709901487596e-16,1.640863492753867e-10,-1.4289386498220453e-18,1.0
289.46,3.3402907848358154,-0.015558378964518277,0.028217797822791053,9.79699634125214,-8.883545239553721e-05,0.000414743114212404,6.717086342766835e-05,-2.4834625262934486e-16,1.6408641148764582e-10,-1.4181112268657839e-18,1.0
289.47,3.3501830101013184,0.030194298759351198,-0.0021146107777207817,9.809986003377617,0.00014189927759045116,4.043030234498307e-05,0.000476627095703519,-2.6268767378706834e-16,1.6408647369627062e-10,-1.4168027787993243e-18,1.0
289.48,3.3603382110595703,0.006871100173190761,0.013525824315275508,9.814134723686164,0.00011431569907777629,-0.00020974422639870254,-0.00017688184196028303,4.0521232298691705e-16,1.6408843476166174e-10,-1.4153277047460509e-18,1.0
289.49,3.370310068130493,-0.003603366448665029,-0.0019703111110922124,9.769257430859053,-0.00018249599350615876,0.00017489424693714075,-0.000635088200875276,3.908420090525439e-16,1.6408849697041971e-10,-1.4171384243504762e-18,1.0
289.5,3.380222797393799,-0.00016803662703595342,0.010876645067133551,9.81071834389831,3.370546598430445e-05,0.0002039355188682433,0.00014785309404322265,3.7648383411837566e-16,1.6408855916813532e-10,-1.4200750974895813e-18,1.0
289.51,3.390216112136841,0.0007628979410575243,0.018191565041178224,9.795852071486873,0.0001529497838355028,3.631063165428984e-05,-5.0460553155988796e-05,3.621062689236573e-16,1.640886213915556e-10,-1.411622826713125e-18,1.0
289.52,3.4003570079803467,0.007142611471816098,-0.007892965165395687,9.798835677199897,0.0002876819735167377,0.00043444313554077735,9.604566761699358e-05,3.477441123771317e-16,1.6408868358182664e-10,-1.4105743324701336e-18,1.0
289.53,3.4102237224578857,-0.03536297962789934,-0.014319966151901153,9.785054120415495,0.00024613598778935403,0.00017547761704595814,8.71638958363259e-05,3.3340850392475655e-16,1.6408874580209625e-10,-1.4079177091516312e-18,1.0
289.54,3.4201905727386475,0.0034263468207051096,0.0036168668942890263,9.794782980696,-0.00019143857293685236,-0.000102550561639722,0.00023302767383096018,3.1907780128708904e-16,1.6408880803066783e-10,-1.4013612919351352e-18,1.0
289.55,3.430276393890381,-0.017454454052843262,0.0022689466692176917,9.828824941930327,0.0002193939260154022,-0.00014930560678827064,0.00011354671093031566,3.0474363072990966e-16,1.6408887024169574e-10,-1.3919613085949083e-18,1.0
289.56,3.440269947052002,-0.015099353165907726,-0.015336553217481933,9.813839305940608,4.3413477617208776e-05,-0.00039278168131588753,-0.00045531332848707104,2.904101981533115e-16,1.6408893243979777e-10,-1.3798178369849252e-18,1.0
289.57,3.450206995010376,0.0024646494650644593,0.02501085587874058,9.774105160230846,-0.0002888178145091286,-1.6046634777510966e-05,4.0587916967836944e-05,2.760656878968165e-16,1.640889946332594e-10,-1.3694169888870738e-18,1.0
289.58,3.4605040550231934,0.00942464778244574,-0.007732693002305893,9.79813172345869,-3.983336844798823e-05,2.0506055042775208e-05,-0.00011203838573769896,2.617321320346808e-16,1.6408905686129452e-10,-1.3613281642216962e-18,1.0
289.59,3.470254898071289,-0.012931829841751296,-0.015258810199845306,9.785309313563182,-0.0003161957874097389,0.000285830291294515,-7.869781470369148e-05,2.7610973891968054e-16,1.6408911906727565e-10,-1.352595624086525e-18,1.0
289.6,3.4802052974700928,0.006263495611750084,-0.004742794908867739,9.81672810049374,-8.919254453187469e-05,0.00013919249421719403,-7.174440584159081e-05,2.904842906294168e-16,1.6408918126452374e-10,-1.3449775008986264e-18,1.0
289.61,3.4903244972229004,-0.027089072687895767,0.012897414197346671,9.816191301116117,1.1181787681315252e-05,9.226922393361116e-05,0.00016275453354459653,3.048608119958125e-16,1.640892434620238e-10,-1.3363385505955918e-18,1.0
289.62,3.5003082752227783,-0.016684599360294525,-0.006168292126466607,9.783730919664327,-5.696492846645656e-05,-5.146441400113767e-05,-0.00031613024869723666,3.1923395715751706e-16,1.6408930566235059e-10,-1.327379681501712e-18,1.0
289.63,3.5102405548095703,0.010606539632006183,-0.003897496809189026,9.818750584397666,-0.0003118979100771748,-0.0004172054401309694,-1.5288448287683193e-05,3.336092333919955e-16,1.6408936785333764e-10,-1.3190019660474065e-18,1.0
289.64,3.520141839981079,0.018896393120660143,0.023500119353665784,9.814554290077046,0.0002311653066768883,-0.00022128311414553538,-0.00028783590157918887,-3.342979996720743e-16,1.640875311214377e-10,-1.3155298257188715e-18,1.0
289.65,3.5303850173950195,-0.005023264754088984,0.0024824468660158837,9.80328437559541,6.201022967953456e-05,0.0001084152002220504,5.07071880793465e-05,-3.1995767471428346e-16,1.640875933292945e-10,-1.3147273922875208e-18,1.0
289.66,3.5402095317840576,0.041105912464566706,0.0006743394873397063,9.800913230723488,7.789524370829999e-05,0.0003370090703430804,7.86101329521604e-05,-3.0561983621917157e-16,1.6408765553215832e-10,-1.3078862716018307e-18,1.0
289.67,3.55023455619812,0.012260180325166254,0.008333403183980128,9.800066684208408,-0.0002669402320609795,4.137385789139505e-05,-0.00010207292135651983,-2.912701430113638e-16,1.640877177373428e-10,-1.3012995358070937e-18,1.0
289.68,3.5604610443115234,0.01290175082498986,0.016700658003402504,9.796694498902001,0.00034925705773985685,-1.3181144584020358e-06,-0.00026752180981244486,-2.769434037216648e-16,1.6408777993862326e-10,-1.3018560226056346e-18,1.0
289.69,3.570209264755249,-0.02090054275857175,-0.0031754703388453226,9.76912321431388,-0.0002526058172420607,-0.00022030578307444972,-0.00012041450338947186,-2.6258388900858383e-16,1.6408784216577801e-10,-1.3031073704389523e-18,1.0
289.7,3.5801596641540527,-0.0036498229909517673,-0.002801747362611629,9.765213969138578,7.798730210041972e-05,-0.00013491173117131645,0.0002847317274063042,-2.482209116702656e-16,1.6408790438507574e-10,-1.2982814203358752e-18,1.0
289.71,3.5902507305145264,0.003282732787719482,-0.01907980832278994,9.791364601206963,-5.2063852097419695e-05,-0.00015027856544830453,-0.00012423595200793442,-2.338489217112842e-16,1.640879666073381e-10,-1.2849161728019684e-18,1.0
289.72,3.6003448963165283,0.020014212441019894,-0.025381467381057298,9.834316260007952,0.000123833853313985,-0.0002294194930461945,-0.0003192009369431194,-2.1947527754989945e-16,1.6408802883057583e-10,-1.283973363795393e-18,1.0
289.73,3.6102659702301025,-0.015172131406527276,0.04298268644368913,9.828867629897962,-0.00015377079615038196,-0.00012829060175887313,0.00013406151666542118,-2.1228675837080448e-16,1.6408808281321565e-10,-1.2821629012958937e-18,1.0
289.74,3.620177745819092,-0.0083574672309907,-0.04216883595177346,9.814173300405551,-9.908193133511991e-06,0.0003936247145230915,0.00030402942731208105,-2.1944204596050025e-16,1.6408815329402687e-10,-1.282470788244411e-18,1.0
289.75,3.6303138732910156,0.0012744159480770425,-0.020246802632421606,9.805305359029084,-0.0001999114176801695,-2.3317690093328958e-05,-7.872169593889227e-06,-2.337744516628967e-16,1.6408821550650583e-10,-1.2803791654783001e-18,1.0
289.76,3.6403846740722656,-0.013169374318142971,0.003027041130251196,9.78618602130109,1.852224819058252e-05,0.00029412219104883264,-0.0002054495420441553,-2.4810347488398597e-16,1.640882777023471e-10,-1.2696294045819268e-18,1.0
289.77,3.650171995162964,0.0345636121875798,0.005673802928169579,9.783350213921697,-1.6152425456210587e-05,-7.936531263820753e-05,-3.171658125068863e-05,-2.6246388180539577e-16,1.6408833990241324e-10,-1.2670646349730139e-18,1.0
289.78,3.660801410675049,-0.012184968864562183,0.007820735939825957,9.76787750056686,0.00022055670812375227,-4.768444345726125e-05,-9.965629846802017e-05,-2.768063979505885e-16,1.6408840210066405e-10,-1.270340665391697e-18,1.0
289.79,3.6702513694763184,3.721260548231802e-05,-0.011006143148163332,9.803951042173914,-4.253081077145702e-05,-5.23113132247099e-05,-5.4568664434157315e-05,-2.9116133660701176e-16,1.640884643092134e-10,-1.2727349118459795e-18,1.0
289.8,3.6802334785461426,-0.0024246594509913263,0.007087109198384424,9.826555071632914,-0.0003214085558936105,-3.332536407336487e-05,-0.00026881719368518445,3.7676211208388874e-16,1.640866276107546e-10,-1.2679744101616605e-18,1.0
289.81,3.6902410984039307,-0.002953949822966185,0.0009315250265372962,9.784350509812604,0.00027457221385599254,-1.1399140817511894e-05,-1.2721372362226864e-05,3.623961062914976e-16,1.640866898193018e-10,-1.2626813745556474e-18,1.0
289.82,3.7002737522125244,-0.0014580065314456535,-0.011174394488783558,9.780009294695056,0.00029540019766295124,0.00017601697308669437,0.00020372482342839517,3.480453956918462e-16,1.640867520514334e-10,-1.2606876636255433e-18,1.0
289.83,3.7102158069610596,-0.01286814123609912,-0.008574045334994236,9.813123174104048,3.0992468768936805e-05,-6.137699111646036e-05,3.3995757240128644e-06,3.3368049445031077e-16,1.6408681426386553e-10,-1.2564801518013302e-18,1.0
289.84,3.720212459564209,0.00364743968497001,0.006063361740636201,9.818340604783359,0.00017668617512340702,0.00010588852742202345,0.00012593976301893188,3.193313660201669e-16,1.6408687647423684e-10,-1.2540976170654958e-18,1.0
289.85,3.730343818664551,0.030923063384617925,-0.041952819493965426,9.802022822213017,-1.9690649372581806e-05,-0.000350145990560744,-0.00010647321296442788,3.049967349411149e-16,1.6408693868798737e-10,-1.2527263437535295e-18,1.0
289.86,3.74031138420105,-0.0006869916234735534,-0.021669358798294194,9.81332951515432,-0.000207163960716451,0.00011076595433970851,-3.672328106767199e-05,2.906618415648756e-16,1.64087000890143e-10,-1.2433448895712674e-18,1.0
289.87,3.750171422958374,0.021414009728369234,0.0018809764419711519,9.811193143320514,0.00010663732015071746,9.16453651711309e-05,-2.059857963672393e-05,2.7631515153497985e-16,1.6408706309463224e-10,-1.2358516668459145e-18,1.0
289.88,3.7604660987854004,-0.012786547889746787,0.02994037347295671,9.817703226643697,0.00023345288459692827,-0.00022928206255817414,-0.00015131780923538025,2.619849366591941e-16,1.6408712530351122e-10,-1.23077395052969e-18,1.0
289.89,3.770216226577759,-0.002170839448357412,-0.011014052247260637,9.804875543771184,0.00026212987230507414,-0.00011180168369853563,7.717666716008061e-06,2.476398969231589e-16,1.6408718750671245e-10,-1.2262045290771593e-18,1.0
289.9,3.780207633972168,0.007417425460517014,0.00953031385936094,9.791729570798864,-0.0003291844733173565,-2.3967157054755214e-05,0.00033265854606480145,2.4045116538914186e-16,1.6409103920704252e-10,-1.22079876745967e-18,1.0
289.91,3.7903494834899902,-0.00925766059242154,0.008668174206013205,9.784812666227324,-0.00011792591591441154,-1.967090874566085e-06,0.00010638109591476549,2.404210929154882e-16,1.640911014201412e-10,-1.2095091201664054e-18,1.0
289.92,3.8003478050231934,0.014028062161017226,0.014386000575280285,9.79752460682529,0.0001545605657699422,0.00030461815515659313,8.502612048530226e-05,2.404110244607417e-16,1.6409116364438027e-10,-1.2017845501835842e-18,1.0
289.93,3.8102104663848877,-0.0069248201213589055,-0.002906970176658263,9.779280036317111,-0.0003981925901975261,0.0004317966071166762,2.6256426362133364e-05,2.4038717047275814e-16,1.6409122585403945e-10,-1.1953166324147389e-18,1.0
289.94,3.820399761199951,-0.0032493323133836608,-0.009263036278787868,9.781048402769148,0.00030774641026250747,7.819469555764398e-05,-7.817621545060166e-05,2.403731732583127e-16,1.6409128805103864e-10,-1.1948913156028925e-18,1.0
289.95,3.8302509784698486,-0.01606624181941377,-0.004400852763531382,9.803839638840046,0.00017774071259595334,0.00035248034974447016,-0.0002462444132824376,-4.4191705540760253e-16,1.6408945137504969e-10,-1.1918351221827578e-18,1.0
289.96,3.8402552604675293,0.0038283266043122907,-0.03184262795568453,9.816869094439042,-0.00016384752397874215,0.0001856663652794557,6.53210143216079e-05,-4.3475940919552867e-16,1.640895218410628e-10,-1.1882602450631088e-18,1.0
289.97,3.8502309322357178,-0.012730667726479777,-0.024099930144960858,9.819111395666651,0.00014584788641176192,0.00012135082940453633,0.00027804494611894927,2.475055652766066e-16,1.6408768511489006e-10,-1.1868201086604324e-18,1.0
289.98,3.8604350090026855,0.00808314674355785,-0.01057145267092983,9.826506359114788,-7.78990821967087e-05,-0.00013728491786058823,-0.0002359517019262782,2.474978595658269e-16,1.6408774733069318e-10,-1.1868910580480768e-18,1.0
289.99,3.8702290058135986,-0.006854129818439912,-0.010973821936753673,9.805053477638547,0.00011604501737740364,-0.0002401258483385606,-0.00035051814056647683,2.475023981380426e-16,1.6408780953793586e-10,-1.1836886356747557e-18,1.0
290.0,3.88019061088562,0.0026746968320204086,0.020493557735505347,9.798077480705423,0.00021858595422516086,-0.00011806108459433888,0.00011859049846307343,2.475249921424788e-16,1.6408787177091278e-10,-1.1827628798143395e-18,1.0
290.01,3.8902945518493652,-0.016569697491574144,-0.0030861430288576853,9.807146173068157,-8.282352633944373e-05,0.0002770627323056945,8.108009883678244e-05,2.331539495674549e-16,1.6408793397977265e-10,-1.1752442596894765e-18,1.0
290.02,3.9003310203552246,-0.008969553559611702,0.0063730636953815405,9.764026904133177,8.182450837006628e-06,-0.0002561843053263209,-0.00018343484267235183,2.1879100884681393e-16,1.6408799618004825e-10,-1.1704124534149193e-18,1.0
290.03,3.9102251529693604,0.00480883249362568,0.02527217561053581,9.817808784251742,0.0003409722452570447,0.00010670121711459034,-0.00010760540331011363,2.0445152011054722e-16,1.6408805839314393e-10,-1.1710001213988071e-18,1.0
290.04,3.9203238487243652,0.014063277653519538,-0.016346730496977657,9.804142320013595,0.0002124608759763351,-0.0003427240316508884,-0.00027799999642757876,1.9008901310827327e-16,1.6408812059250704e-10,-1.1739961758637003e-18,1.0
290.05,3.9302687644958496,-0.0013383205509589562,0.0013038043224287935,9.814452887093172,1.8042919700485105e-05,-0.00011264652226115566,1.347719479574623e-05,1.75738002560939e-16,1.6408818279177397e-10,-1.175238131148536e-18,1.0
290.06,3.9401822090148926,0.002760021186548705,0.010005869057012312,9.815081234555885,0.00016684910019189634,-0.0001459930457342124,-0.00016633785118212786,1.6138123650677284e-16,1.640882449833547e-10,-1.163432533212197e-18,1.0
290.07,3.9501919746398926,-0.014037702464155073,-2.211962918116459e-05,9.810657195343122,0.00030639289247917905,0.00021213493435760658,0.000261596533621172,-5.065556969299602e-16,1.6409020606206414e-10,-1.161411974250662e-18,1.0
290.08,3.9603285789489746,-0.01651216683920714,0.010750286027622128,9.809300931430213,-3.347230051582906e-05,0.00021966809335878575,0.0003068056110237757,-4.922193784313361e-16,1.6409026827851603e-10,-1.1535804891294473e-18,1.0
290.09,3.9702088832855225,-0.0005926553712499997,-0.02271236947430578,9.818461940095725,6.612823367396835e-05,0.0003198093410820027,-0.00017911430843148084,-4.778558629625793e-16,1.6409033048945453e-10,-1.1595677022883623e-18,1.0
290.1,3.9802346229553223,-0.006770503793478488,-0.0037499902457778537,9.800769592171322,-0.0002295899826133813,-2.8863198804534444e-05,6.949090433955577e-05,2.0441851768063724e-16,1.6408849374814935e-10,-1.16633727372998e-18,1.0
290.11,3.9902565479278564,-4.0346884594600176e-05,-0.0059995976113244665,9.807950240383054,-0.0002547453062737752,0.00027672394868437995,-0.0004596737793638064,2.1877234693414307e-16,1.640885560164322e-10,-1.1701099075734731e-18,1.0
290.12,4.000262498855591,-0.03540628917058075,-0.008768239349695612,9.811677463170808,-0.0005065133758988413,0.00019471297680532853,-0.00014214016375585172,2.331052179747256e-16,1.640886182268703e-10,-1.173465661495159e-18,1.0
290.13,4.010293006896973,0.0037928371825141686,-0.010988316516577237,9.791370309761028,-0.0002244541893575475,0.000150329227651743,3.670543924622015e-05,2.474677893691548e-16,1.6408868042062903e-10,-1.16873080445199e-18,1.0
290.14,4.0202460289001465,-0.00242428504085233,-0.0027334786860919147,9.800167696316299,-0.00021523187634463854,0.00038384602079900864,9.45873015986161e-05,2.618248532116545e-16,1.640887426109118e-10,-1.1701579941961599e-18,1.0
290.15,4.030255079269409,0.03632260696935681,-0.031709004168789405,9.801098555952779,0.00031382295558061367,-8.480202079889413e-05,-1.0001992324272686e-05,-4.0609563885447036e-16,1.6408690590578166e-10,-1.1726078587027812e-18,1.0
290.16,4.040205240249634,-0.005173769136080021,0.005407803054701127,9.811697807421547,-0.00032274493966380285,0.00022769855743397122,0.0002104170781233978,-3.917257670720255e-16,1.6408696811039455e-10,-1.1696026738308521e-18,1.0
290.17,4.050244331359863,-0.002043425992430863,0.013224634842902759,9.814013266586514,0.00016242604839973273,-0.00019768258921988422,-0.00011008754060930681,-3.773675253611179e-16,1.6408703031184544e-10,-1.1654063991253214e-18,1.0
290.18,4.060361623764038,-0.005826294474300265,-0.008648103904008391,9.813970834449146,0.00021143848220635237,3.126144013486617e-05,0.0001885824456872923,-3.629814648749326e-16,1.640870925264451e-10,-1.1617174952412412e-18,1.0
290.19,4.070224761962891,-0.014518956213680257,0.019980444667301905,9.790640869769767,-0.0001676149751511457,0.00047251971606305116,-8.119166402653488e-05,-3.4861267919137396e-16,1.6408715473482186e-10,-1.15772481736201e-18,1.0
290.2,4.080230474472046,0.009393579964833029,-0.018207061560164533,9.834759128887338,-7.396445752913038e-05,-0.00025893181265495944,-0.00026339895443476936,-1.0165075992983462e-15,1.640891158157171e-10,-1.1580902614758394e-18,1.0
290.21,4.090313673019409,0.026368668203310956,0.02103249267281684,9.789109044960336,-0.0003245185833036069,-0.00018606971313942574,0.0002333602169360009,-3.1989187340643413e-16,1.6408727913659653e-10,-1.1623830406944102e-18,1.0
290.22,4.100281238555908,0.00521493952375449,-0.005583864176787853,9.790322077801994,-5.384256683701874e-05,4.1544664057617346e-05,-0.00022333135965287175,-9.877926540647085e-16,1.640892402136298e-10,-1.1614999814741659e-18,1.0
290.23,4.110219717025757,0.029132644827134156,0.00038779994238360277,9.789020746707294,0.00028879548543809017,4.648218700112253e-05,0.00021843442253679854,-9.734155024398556e-16,1.6408930241036877e-10,-1.1599481625841717e-18,1.0
290.24,4.120565891265869,-0.03557419426281889,-0.01962702751282721,9.797982965505852,-0.0005622355934989822,-0.0004309008629366839,9.397829806295374e-05,-9.590790374014618e-16,1.6408936461146279e-10,-1.1644009071853748e-18,1.0
290.25,4.130268573760986,-0.0024703441908606365,-0.017018978130316654,9.799384858837607,-0.00020644448675529435,-1.8907397289402264e-05,-6.40223978905151e-05,-2.6246988384184907e-16,1.640875279133197e-10,-1.170319748889904e-18,1.0
290.26,4.140265226364136,-0.03588775682872098,0.01948452105025004,9.788154216587447,-7.5726976455260635e-06,-4.0565553029638565e-05,-0.00020475960360711679,4.054393481302528e-16,1.640894890213967e-10,-1.1723447183538838e-18,1.0
290.27,4.150306701660156,-0.020336697335435562,-0.01863837471082445,9.791680156197755,1.248614221910779e-05,0.0001487442993731708,0.00010684744495815935,3.9108742646268107e-16,1.6408955122353018e-10,-1.1818696133121386e-18,1.0
290.28,4.1603477001190186,-0.013784447102375851,0.0042991049296887815,9.79244371334528,-8.302090287559664e-05,-0.00015657710075699273,1.582479981509759e-05,3.767368782186415e-16,1.6408961343738736e-10,-1.1823300025800424e-18,1.0
290.29,4.170212030410767,-0.02868685472098312,0.006850919003785075,9.819535560044756,5.143160205259631e-05,0.00017510954094111645,-0.00017050451649791982,3.6236471390845906e-16,1.6408967564389843e-10,-1.1742916894805486e-18,1.0
290.3,4.180214881896973,0.0036972711507576054,-0.012126130727667868,9.820277315492596,-0.00014622682593440074,1.9483390076265755e-06,5.436194057845109e-05,3.4800629138402676e-16,1.640897378706741e-10,-1.1788618295408544e-18,1.0
290.31,4.190466403961182,-0.0035102447143433727,-0.008041668486794174,9.769345409855868,-0.00031213118815773163,6.922538713988e-05,-0.00030004119483959007,3.3364027030147477e-16,1.6408980005344464e-10,-1.1787462905580319e-18,1.0
290.32,4.2002763748168945,-0.0066418924778704,-0.017879161031882387,9.78720309630616,-0.0002414416052651229,-2.7653101732804046e-05,-0.00027578353337910286,3.1927343477140905e-16,1.6408986227323808e-10,-1.1749313311899356e-18,1.0
290.33,4.210332870483398,-0.015902533657626408,0.03806365254072788,9.800951005222856,6.8766913607336726e-06,0.00019546707808631677,0.00023138302244890384,3.0494496524791707e-16,1.6408992449698108e-10,-1.1735421885455331e-18,1.0
290.34,4.22031831741333,-0.006660518443515557,-0.013551253686734922,9.771475241886096,0.00010930518065418012,-1.0577569395419097e-05,-0.00024621096776172163,2.906190170807066e-16,1.6408998671963245e-10,-1.169782645781066e-18,1.0
290.35,4.230236291885376,-0.007583165836209941,0.02632257960354803,9.778351993527492,0.00012144763117729586,1.3615741751687235e-06,0.00010261659229552688,2.7628513707605194e-16,1.6409004890587199e-10,-1.1655683007897477e-18,1.0
290.36,4.240196704864502,0.005922500069706083,0.020172090827893646,9.795620615305223,4.960394141710688e-05,0.00023709071206803696,-0.0005606472921347885,2.6194808843144583e-16,1.640901111174697e-10,-1.1632966842895389e-18,1.0
290.37,4.2502570152282715,0.03044961993438526,0.012602550629255799,9.799945010279592,-0.0001679784551770236,-5.670157397488084e-06,2.8564108480956703e-05,2.476165523284983e-16,1.6409017333820855e-10,-1.1660781008578349e-18,1.0
290.38,4.260355234146118,-0.001039761750150898,-0.0072042056355749685,9.805571641561903,4.2560889205370596e-05,0.00019332397016972723,3.002120027111209e-05,2.3326338939403004e-16,1.640902355464817e-10,-1.162157477282712e-18,1.0
290.39,4.270269155502319,0.01500328211774659,-0.017510904613004526,9.776189419027741,-3.120192115639243e-05,0.00026386311968431815,-0.00013232059417952287,2.1891474948537754e-16,1.640902977570117e-10,-1.1638406653347442e-18,1.0
290.4,4.280230760574341,0.0006042110355275926,-0.01589218610750882,9.79205480140623,0.00040337159245655265,-1.837831688662824e-05,0.00018488011324911113,2.1173557052037436e-16,1.6409035162246316e-10,-1.1665899628662588e-18,1.0
290.41,4.290376901626587,0.01456305613363323,0.01003572988439619,9.793757297083365,0.0002484802462739391,-9.165058299648242e-05,-0.00012319381579088023,-4.633647044161829e-16,1.6408852325105258e-10,-1.1649114638166675e-18,1.0
290.42,4.300239562988281,-0.0074633482165354734,0.027670270074980692,9.781238022651566,-0.0001588807175782415,5.850976312745183e-05,-4.3162425334750735e-05,-4.490194167862014e-16,1.6408858547047306e-10,-1.165639345687657e-18,1.0
290.43,4.3102498054504395,-0.0061849628549614745,-0.00230706673579972,9.826689273942652,-0.0002681987318682714,6.404168739063509e-05,0.0004877424786154151,-4.346810491543381e-16,1.640886476723958e-10,-1.165272753951735e-18,1.0
290.44,4.320454120635986,0.005084743817721418,-0.008061268600044967,9.793391235492974,-0.0002757311367612678,0.0004367808334482526,0.0002010091597775496,-4.203448112684376e-16,1.6408870988173364e-10,-1.1659904991449853e-18,1.0
290.45,4.330260992050171,-0.009961863376895091,-0.0028396412241590116,9.8047946685913,-4.384375228473116e-05,-0.00028364913658333993,4.467450526334583e-05,-4.059831577607156e-16,1.6408877207721016e-10,-1.1634874408389973e-18,1.0
290.46,4.340263366699219,-0.016311919834110226,0.03184908775352227,9.833473033328605,4.475026808997784e-05,-0.0003003674105516791,0.00039248852190259604,-3.915862420405678e-16,1.6408883428411592e-10,-1.1608353913092523e-18,1.0
290.47,4.350288391113281,-0.018172685785548665,0.014556188782800517,9.796592212956497,3.5176781747162945e-05,-0.0001722060939629308,-0.0004436129455500271,-3.771973537530395e-16,1.6408889650014365e-10,-1.1578849613048821e-18,1.0
290.48,4.360256671905518,-0.015377535589243442,-0.01869925488331677,9.766305651754859,-7.644396000322526e-05,0.00018282851664120446,-0.00032624542440381615,3.1226589908268186e-16,1.6408706815108328e-10,-1.1518318955970885e-18,1.0
290.49,4.370243310928345,-0.009459919471954131,-0.0034467312250710067,9.794666327865448,-1.0281517274323678e-05,-3.743997938810166e-06,0.00027681120412660696,3.266456899381174e-16,1.6408713037536532e-10,-1.145097424003305e-18,1.0
290.5,4.380262851715088,0.02637715966688492,-0.0017263397240942489,9.816906999670191,-1.2702752367181468e-05,-0.00012592501859333183,-5.7493092809625673e-05,3.4102608731222454e-16,1.640871925864318e-10,-1.1463280095308609e-18,1.0
290.51,4.39032244682312,0.02598230194895208,-0.004143180284974042,9.789629486506572,0.00015406988372146496,-0.00010144614416757422,8.883767948263031e-06,3.553892303874414e-16,1.6408725480417132e-10,-1.1513097490053759e-18,1.0
290.52,4.400289058685303,0.00931346641556222,0.014687705446368972,9.806518018310832,0.0001556697185042739,-7.0020286144126e-05,2.9522562134663843e-05,3.6974760821175313e-16,1.6408731702118055e-10,-1.1525118853291417e-18,1.0
290.53,4.4102184772491455,0.03540623548597733,-0.0036381791096810486,9.809041777772341,0.00010036358261416996,9.222296265787405e-05,-0.00017890777645866753,3.840922458842696e-16,1.6408737923301465e-10,-1.140478874746577e-18,1.0
290.54,4.420332670211792,-0.00959409658908601,-0.007071589871169853,9.790906687910375,-0.00012053394097060918,-3.2895898782606e-05,0.00040090806254205563,3.9842767686917744e-16,1.6408744144957064e-10,-1.1475626867633705e-18,1.0
290.55,4.430217027664185,-0.010017876295915303,-0.01342580017680427,9.807953348925684,-0.00016663282466418468,0.00010079227169568335,-0.00045183748394113957,4.127788284493788e-16,1.6408750367354865e-10,-1.1537184083568537e-18,1.0
290.56,4.440212965011597,-0.052665174122802805,0.00873564806746266,9.78573413617703,2.7057067874742334e-05,-8.045591366633686e-05,0.00011711829673447134,4.2712640342488938e-16,1.6408756589756873e-10,-1.1572904184227868e-18,1.0
290.57,4.4504053592681885,0.026688665321089364,-0.0248787001860964,9.815604008316129,-6.806514273253645e-05,7.120401751023037e-05,-0.0002606031723834952,-2.407806232016143e-16,1.6408572921966594e-10,-1.152336249185239e-18,1.0
290.58,4.460321664810181,0.02705737117503267,-0.008363996494069565,9.78652446678308,-0.0001386728745270978,0.00015738695901628075,-9.098409588074405e-06,-2.4075868009105973e-16,1.6408579145307477e-10,-1.1446709722687434e-18,1.0
290.59,4.470166206359863,-0.015376930229397668,0.00966446206635574,9.823507488974256,8.423043424795319e-05,7.498249713811966e-05,0.00031278091216600963,-2.407319236802813e-16,1.6408585367162788e-10,-1.1368479980778124e-18,1.0
290.6,4.480332374572754,-0.0009247872148215502,0.025288351388500382,9.77634650390838,-0.00022827142829291982,8.513987134356018e-06,-0.00012179287549693389,-2.407063028099423e-16,1.6408591586830007e-10,-1.1300148817776013e-18,1.0
290.61,4.490314483642578,-0.0006181057522910796,-0.021938217724875364,9.824097944180314,-0.00012160294947317672,0.00033587066448246183,-0.00025193387159585964,-2.4067867460219445e-16,1.6408597807414458e-10,-1.1262057096242578e-18,1.0
290.62,4.500256538391113,0.014379394079698045,-0.029033396133034253,9.829947401154563,-0.0004993531013594251,-1.7385519150047567e-05,-0.00015799862959481827,-2.406649623936651e-16,1.6408604026695348e-10,-1.1218955078958294e-18,1.0
290.63,4.510287761688232,0.004309668734297901,0.004234926522380024,9.803145253853147,-8.076860752157737e-06,-3.906581340047364e-05,-0.00024586285557022514,-2.4065291675998393e-16,1.6408610247631165e-10,-1.1179489621201753e-18,1.0
290.64,4.520411968231201,-0.0032451903362928657,-0.02286899341181074,9.78220863049671,0.0003845254672210164,1.865773893672461e-06,-3.101993298061397e-05,-2.4782232393279576e-16,1.6408995412663356e-10,-1.11719320289611e-18,1.0
290.65,4.530200242996216,-0.011497571298024933,-0.03862168429189571,9.791057248806439,-0.0002871130528428784,-0.00011124320403790527,-0.00019739721512423413,-2.478075320209161e-16,1.6409001633118482e-10,-1.1188329919915436e-18,1.0
290.66,4.540283918380737,0.010107502632376492,-0.01483766902646036,9.800551642047282,1.6457978453180754e-05,-0.00014710817212743317,0.00043956653131195094,-2.4780672149897887e-16,1.6409007852682136e-10,-1.116827086393766e-18,1.0
290.67,4.550295829772949,-0.008399478452663072,-0.011349723915201745,9.794211527295774,0.00021796711452249938,0.0002585410616708971,0.00031847699422991746,-2.4062345904742297e-16,1.6408635126364347e-10,-1.1134198112666135e-18,1.0
290.68,4.56024169921875,-0.02217354121188821,0.014015638104075336,9.783182803805449,3.204855990535584e-05,0.00019829138956859138,5.76538395745255e-05,4.4166869337191004e-16,1.6408831234321376e-10,-1.1043179193484954e-18,1.0
290.69,4.5702431201934814,0.011353717013851825,-5.429751028403832e-05,9.746201443568308,-6.046959249187132e-05,-0.0003396434651792226,-0.0004407189051830616,4.560401725856132e-16,1.6408837456311388e-10,-1.1002353779328685e-18,1.0
290.7,4.58021879196167,-0.007610191011130786,-0.00042352277597338734,9.78899308983596,-0.00027640762077081496,-0.00026161133389788766,-0.0003304073597184453,4.704056172859259e-16,1.640884367665927e-10,-1.1028513872438198e-18,1.0
290.71,4.590270519256592,-0.00048532823233077873,0.004270434023481637,9.790519866453664,-0.0001324342362001131,-4.6696265611642986e-05,-0.00014586908826012528,4.847825773032839e-16,1.640884989602634e-10,-1.104199940930352e-18,1.0
290.72,4.600350618362427,0.0315313901954619,-0.01807650156299566,9.802708879991362,0.0001426495661423976,-7.519648269215582e-05,0.00023827533796939087,4.991446969044521e-16,1.6408856115977272e-10,-1.1015162152877209e-18,1.0
290.73,4.610266447067261,-0.027388624070929457,0.019207059921753752,9.802794743285213,2.5855155597774586e-05,-2.3594148836999e-05,-0.00018691059276338624,5.135035484161413e-16,1.6408862336785284e-10,-1.1008294523895452e-18,1.0
290.74,4.620396375656128,0.028110635907467263,0.01548705628417191,9.780416087252235,-0.00014322136494215816,8.684662265589108e-05,-2.223184799960813e-05,5.135209936944137e-16,1.6408868556471844e-10,-1.0952567466932736e-18,1.0
290.75,4.630231618881226,-0.010126472711310437,0.02228859065046719,9.8258627424056,-0.0002738750066757957,0.0002558866449217854,0.0003079089131461623,4.991932047570067e-16,1.6408874778750599e-10,-1.0952067791568793e-18,1.0
290.76,4.640193223953247,0.02960618139974562,-0.02009873303798754,9.795433749142529,0.00027648379324173185,-1.3272258858970823e-05,-0.00034574504024549227,4.848518749534917e-16,1.6408880999921043e-10,-1.095607279901245e-18,1.0
290.77,4.65026593208313,0.011855105479792684,-0.023543469975559,9.826313410980138,0.00015496660850509127,-0.0002657279839895997,-0.0001459484028662668,4.705095475086585e-16,1.640888722111334e-10,-1.0948514848180915e-18,1.0
290.78,4.6602582931518555,0.02276159899890315,0.004967249986889527,9.812788702096542,0.00027535935435146004,-0.0002654132689799437,4.0580898203840096e-05,-2.117502625668791e-16,1.6408703547193546e-10,-1.094869784225154e-18,1.0
290.79,4.670217275619507,0.015335507275714925,-0.001650465939896381,9.777593580432733,0.00026829112110554365,0.0001290946308122989,-0.00012946486683992678,-2.2609724610032185e-16,1.640870976862927e-10,-1.0979694083748783e-18,1.0
290.8,4.680375099182129,-0.029004222105977116,-0.018352018473348674,9.81783161728659,-0.00014887571370419438,0.00018207949243366107,0.0002650135356046861,-2.4043137284844217e-16,1.6408715990900914e-10,-1.0941282809345625e-18,1.0
290.81,4.690267324447632,-0.021280169563042958,0.003922786979775237,9.827311934548751,-7.482404865263121e-05,-7.239069822615427e-05,3.43138796327279e-05,-2.547646966178825e-16,1.640872221211247e-10,-1.0930856411198155e-18,1.0
290.82,4.7002527713775635,0.008518420770200322,0.0014504285593819094,9.805734859520259,-0.00017686951067348808,-0.000353833423631704,-0.0003060241409404852,-2.691205252926906e-16,1.6408728431620523e-10,-1.0996659577940363e-18,1.0
290.83,4.710274934768677,-0.013910041748883013,-0.004558710465952358,9.789276062821719,-0.0002520489763823814,-0.00015254326322368042,0.0002570273994114677,-2.83489703650126e-16,1.6408734653925779e-10,-1.1044229361670374e-18,1.0
290.84,4.7203662395477295,0.0010922692689217671,-0.03479353805241716,9.784573056223172,0.0003972540163910458,5.109043839883546e-05,-0.00013736255793297882,-2.9785903251969224e-16,1.6408740874033528e-10,-1.1137959143417125e-18,1.0
290.85,4.730149745941162,0.0025370737852224838,0.017681660410729213,9.811723755519813,6.776799735640678e-05,-0.00010932895628216468,0.00016162846210572291,-3.122023437564015e-16,1.640874709606331e-10,-1.1122731366812266e-18,1.0
290.86,4.740262508392334,-0.0005721782780855741,0.0068473351791557896,9.81171061753863,-0.00036161345469619893,0.00020255136579070941,-0.0002548315404209558,-3.2656954644606406e-16,1.640875331567818e-10,-1.1093255499005697e-18,1.0
290.87,4.750360012054443,0.010575741535850816,0.013513369255388341,9.804350907847391,0.0002428875104596571,9.44441346512999e-05,-9.840751686603492e-05,-3.4092045111650777e-16,1.6408759535776044e-10,-1.1128610918892485e-18,1.0
290.88,4.76023006439209,-0.022852282796186004,0.0021910604128176445,9.798230643077835,-9.840890024406752e-05,-0.00022749332133381025,0.000527649190151637,-3.5525248825156805e-16,1.6408765758421178e-10,-1.1062825528943337e-18,1.0
290.89,4.770202398300171,0.03390128556115135,-0.026442675751458967,9.805858163933244,0.00010111860661130408,0.00010388514995097007,-0.00016260708272217123,-3.6958978709474617e-16,1.6408771979960857e-10,-1.1060004915588981e-18,1.0
290.9,4.780304908752441,0.02226823891146052,0.03548592807413153,9.79646720982613,-9.116944949523917e-05,5.296046757922523e-05,7.679671252160604e-05,-3.839131004889693e-16,1.6408778200082826e-10,-1.09875799133085e-18,1.0
290.91,4.790250062942505,0.020405488799038234,0.01511185914950588,9.778768995865413,0.00019066338082134287,-0.00015904103063783798,8.350811802440503e-06,-3.982296450799202e-16,1.6408784420555608e-10,-1.095038462585358e-18,1.0
290.92,4.8002800941467285,-0.043212297236901925,-0.029975729885189307,9.811829946418397,0.00012083803661968745,9.989883377752048e-05,-8.77267103083978e-05,-4.1256247812324477e-16,1.640879064034937e-10,-1.0921085171597406e-18,1.0
290.93,4.810339689254761,-0.006953321324704756,-0.027316443401652166,9.792057242192687,-0.00020731258519442273,8.108301811664552e-06,-0.00010348107525512415,2.6973866212389643e-16,1.6408606970360376e-10,-1.0926253681201214e-18,1.0
290.94,4.820328712463379,-0.00922173346570154,-7.378835913726538e-05,9.788920334055316,-5.613016582165489e-05,-0.0003681895630300819,0.00010189804181414829,2.8412002391394543e-16,1.6408613190541943e-10,-1.0892127876079696e-18,1.0
290.95,4.830175161361694,-0.0018499744215609072,-0.0003953603287946657,9.792771125395763,-9.244561544271875e-05,-2.359342875443001e-06,0.00024201296275156735,2.9850307169178435e-16,1.640861941093345e-10,-1.0861811528649247e-18,1.0
290.96,4.840325832366943,-0.029698218496062048,-0.03982247516903629,9.804888453722546,0.00014526573961983394,-0.00045024754353491757,-0.00032681557237571285,3.1289153634572813e-16,1.640862563054741e-10,-1.0861438756132133e-18,1.0
290.97,4.850365877151489,0.0010209380205555415,-0.04819608255396749,9.812465310194508,-5.9289431708312396e-05,0.00030184816251910144,0.0003852283480471372,3.2725793257661323e-16,1.640863185129141e-10,-1.0837043329736716e-18,1.0
290.98,4.860241889953613,0.04122070853905343,0.003637394828158163,9.794724228050537,0.00019759432071739594,-2.58316542508002e-05,-2.3570908492842383e-05,-3.406369474465433e-16,1.6408827958080106e-10,-1.0843108136785639e-18,1.0
290.99,4.870270252227783,-0.0008656046111122504,0.04427756403584805,9.797114395469428,-2.330402375066107e-05,-4.7819471771145286e-05,-0.00034249655532509274,-3.2628180986972363e-16,1.640883417904763e-10,-1.0874069440220393e-18,1.0
291.0,4.880249738693237,0.002367518596807374,-0.009154867784648472,9.802280076714206,7.293360118496092e-05,0.00019687613686011535,0.00016376879504601747,-3.1192981255327686e-16,1.640884040029006e-10,-1.0897606596226309e-18,1.0
291.01,4.890267372131348,0.014463808487017888,-0.001756341771617321,9.759916655544979,-0.00031085584472790554,-0.00016714123654171576,0.00010842907237765215,-2.975977869030165e-16,1.640884662178399e-10,-1.0834415404700248e-18,1.0
291.02,4.900294542312622,0.011495622989029787,0.013439264728179039,9.817496684478277,0.00014114036161689078,-9.040128531595762e-05,0.00017138119718143675,-2.8325964205134636e-16,1.6408852841071782e-10,-1.0901007633399319e-18,1.0
291.03,4.910301685333252,-0.00519081136339563,0.008160822050665229,9.828815744613962,-5.2542986511450653e-05,0.00013262270599141061,-3.1245784460121654e-05,-2.689120972000531e-16,1.640885906175316e-10,-1.103727182768985e-18,1.0
291.04,4.920340061187744,0.007255269479106449,-0.011067536357516096,9.781871513083214,-0.0005777426446489231,-3.672630338215386e-05,0.00016537379066433198,-2.545524134556856e-16,1.6408865282721982e-10,-1.1067238788674146e-18,1.0
291.05,4.930176019668579,-0.017490765547079814,0.004155813840474993,9.790643404571824,0.0005653770126586762,0.0001716454655686552,9.229729573824202e-05,-2.4017777173167235e-16,1.640887150459381e-10,-1.1027825764753729e-18,1.0
291.06,4.9403321743011475,0.007280097789588918,0.021147738381756976,9.788865114114126,-2.536543030512585e-05,5.061025794603898e-05,-0.00011958770563179775,-2.258103920715976e-16,1.640887772786357e-10,-1.099094598281749e-18,1.0
291.07,4.950403451919556,0.0006379961135844747,0.01118576637761797,9.812240214930892,-9.861142905037052e-05,0.00024526140902377615,-5.254021528762277e-05,-2.1144657737308667e-16,1.6408883950647042e-10,-1.1014899489265594e-18,1.0
291.08,4.960236310958862,0.00804713914911298,-0.006894993011157519,9.808155946071123,0.00027838664980430323,-1.86938882096582e-05,-0.00026593296448069114,-2.257844897834038e-16,1.6408890171150137e-10,-1.107856898425764e-18,1.0
291.09,4.970201015472412,-0.01872843860586895,-0.013193913256250486,9.795495832617169,3.334473034649247e-06,-7.689618601700588e-05,-0.00016074045789648395,-2.4011978762300766e-16,1.6408896392456363e-10,-1.100900793819741e-18,1.0
291.1,4.9802656173706055,-0.00011195038633196721,0.004485139331832906,9.780487356101982,-1.3937208247904891e-05,0.00018629393659024758,-1.8880802608950718e-05,-2.5445833594617476e-16,1.6408902613092686e-10,-1.0994035522048745e-18,1.0
291.11,4.990235328674316,0.0024035896583776482,0.03555871315778744,9.804676573486443,0.00012148137168713924,-3.8711561227035056e-05,-0.00018465065291522264,-2.688141445541089e-16,1.640890883380746e-10,-1.1049096916048766e-18,1.0
291.12,5.000317811965942,0.04096897186524906,-0.020073950110827524,9.797990262295555,-0.000155911457542438,-8.382701705878426e-05,-3.065550602833977e-05,-2.8316725317329103e-16,1.640891505326777e-10,-1.1126868712394975e-18,1.0
291.13,5.0104968547821045,0.0021198204737079783,-0.01843645194242888,9.817269528916965,8.430994742897029e-05,4.740015506915418e-05,-0.0001264832495918157,-2.9751558839965835e-16,1.640892127421738e-10,-1.1185530648098647e-18,1.0
291.14,5.020263195037842,0.025038291223842647,0.004784228410424577,9.792717335194093,0.00019104520096913403,-7.795024799548379e-05,5.814496390569288e-05,3.703905875540062e-16,1.6408737602707989e-10,-1.1154092830317506e-18,1.0
291.15,5.030125379562378,-0.005502681431973115,0.005213258632147249,9.769462655732683,8.662487865262454e-05,-5.440224900708194e-05,0.0003763943381160156,3.5603782000042644e-16,1.640874382323745e-10,-1.1164168479809454e-18,1.0
291.16,5.04033088684082,-0.03213999279202636,0.0033607167552604333,9.771436811159743,0.00020961085258361882,0.0001851959608732769,-7.51585212240003e-06,3.4167647518895704e-16,1.640875004476004e-10,-1.1233285550810017e-18,1.0
291.17,5.0502870082855225,0.005085760683961951,-0.02525244069068894,9.79535325325698,0.0001410104811621326,-0.0002600856620309137,0.0001878646526495974,3.2732963767061415e-16,1.6408756268863254e-10,-1.1235576272645616e-18,1.0
291.18,5.060355186462402,-0.015664711364134488,-0.03608012762799156,9.802462276558922,-0.0003328633821278657,0.0005711480766038956,4.1085961408257066e-05,3.1298285137180386e-16,1.640876249014463e-10,-1.1220571583503714e-18,1.0
291.19,5.0703349113464355,0.02507162659125161,0.009196671768907847,9.796322054411409,-7.266808608321001e-05,-4.964293331000783e-06,-0.00017351891765966427,2.9865670236404126e-16,1.6408768710720795e-10,-1.1170387353613808e-18,1.0
291.2,5.080399990081787,0.026206270486948815,-0.0065871121839370895,9.774247138385174,-0.00032043847970868227,-0.00038041377368776687,-0.0002521931509792035,2.843188964591572e-16,1.640877493257333e-10,-1.110550023090247e-18,1.0
291.21,5.090206861495972,-0.03105013656372634,0.02532425906970517,9.808843127205611,-7.293594994827986e-05,-0.00011198654205371576,0.00021893521283124172,2.699709597198029e-16,1.6408781153419033e-10,-1.1029518127498626e-18,1.0
291.22,5.10026216506958,0.011338812916396218,0.009945092236045219,9.781493700276062,-0.0001083514142054086,-6.0963365813280464e-05,0.00014417246862943813,2.556267667481761e-16,1.6408787375646528e-10,-1.1024015992620738e-18,1.0
291.23,5.110610485076904,-0.011702244592816163,-0.0031694781146341974,9.834955661011724,-0.0003258479896694937,-0.00021421398666249914,0.00027453382158110483,2.412584388317177e-16,1.640879359722233e-10,-1.1117410081951952e-18,1.0
291.24,5.120274066925049,0.007476067598181593,0.027986538961942507,9.794878187952685,0.00014586976363436063,0.00012339963175850833,2.5431098237470497e-05,2.3407569186456173e-16,1.6408798993025005e-10,-1.107127863819612e-18,1.0
291.25,5.130235433578491,0.02381339602040206,-0.038859916912551605,9.807303439420915,-0.00028314033404103965,0.0002473226610719866,-6.387594475464223e-05,2.340658204519093e-16,1.640880521263376e-10,-1.0978991603838598e-18,1.0
291.26,5.140396356582642,0.021223994748164107,-0.015179028522383634,9.805509233719034,1.6297842388962567e-05,9.557165373001653e-05,-0.0002265128632881293,2.3404354481841197e-16,1.6408811433939508e-10,-1.0920076038277987e-18,1.0
291.27,5.150262355804443,0.01045951163181073,0.0011223013198354487,9.782645342917391,-3.341360894777824e-06,-0.00025625407779265034,0.00012310637639864107,2.340272679620254e-16,1.640881765402766e-10,-1.0868242842110917e-18,1.0
291.28,5.160232305526733,-0.008343333198071564,-0.005507503754864851,9.842638608855468,0.00010700390460415395,-7.667789370629435e-05,2.2474603149894116e-05,2.3401646634405307e-16,1.6408823874775657e-10,-1.0848275302242119e-18,1.0
291.29,5.170237064361572,-0.024746798983399133,0.021188872678323742,9.80218846304434,0.0001971012849731143,3.2145241060346785e-05,-0.0001900839879426062,-4.482678200970551e-16,1.6409019983065538e-10,-1.0829686584004815e-18,1.0
291.3,5.180300235748291,0.028733333227241822,-0.03834269180709087,9.789184846408439,0.00013520784238310173,-4.335885786026012e-05,8.091077312260692e-06,-4.482712174256883e-16,1.6409026204789185e-10,-1.08028756681798e-18,1.0
291.31,5.1902265548706055,0.0038585957743347225,-0.01622446568582736,9.810520709506099,-5.008887958119094e-05,-0.00037118851678710345,-6.632463976932128e-06,-4.411136972131514e-16,1.640865347548776e-10,-1.0794788989090182e-18,1.0
291.32,5.20024299621582,0.003215301850543875,-0.019696570661145926,9.778733308694354,-1.226428064481134e-05,0.00018428238091421046,-0.00016808504075339578,-4.4111957676506433e-16,1.6408659693925927e-10,-1.080152146079327e-18,1.0
291.33,5.210448980331421,-0.02348392644453994,0.011883905106153128,9.79990695952542,0.0002476859397483163,-0.0003095161583147889,-6.357547994795403e-08,-4.411311439122354e-16,1.6408665914592995e-10,-1.0775918027531422e-18,1.0
291.34,5.220241069793701,0.009711033943110892,0.02977753794026895,9.810555826058676,0.0003220969618850886,0.0001430845232768182,-6.77218488730743e-05,2.4113450068408964e-16,1.6408862022009576e-10,-1.0784676088774123e-18,1.0
291.35,5.230247259140015,0.03947026963919958,-0.0152922698031988,9.815500873733157,-0.0001468862408180324,-0.00023608800175449536,-0.0003870301489711038,2.2677352864467365e-16,1.6408868242347788e-10,-1.0759479756202174e-18,1.0
291.36,5.240488052368164,0.012524924256111274,0.0012955638147065835,9.80061307415063,9.674767395284508e-05,0.00015481283795618878,0.00013152052091202309,2.1239612937640537e-16,1.640887446228662e-10,-1.0771141700952341e-18,1.0
291.37,5.250232219696045,0.006320053824188613,0.0033931248941856743,9.807993282222965,-0.00025103264210830104,-0.00024301165973711534,9.664516964202152e-05,1.9804923318573926e-16,1.6408880682863784e-10,-1.0817004499735877e-18,1.0
291.38,5.260279655456543,-0.022492574039899765,0.03140866210560019,9.804477532745342,-0.00020330371371347897,-0.00046118958749885645,2.4265372436694222e-05,1.8370109845597952e-16,1.6408886903100078e-10,-1.0859239796679664e-18,1.0
291.39,5.2701849937438965,0.02602084693702741,0.0015837831375752898,9.788442187492032,-9.520765556950703e-05,0.00018988829430714507,-0.00035842616162461453,1.6936194732488387e-16,1.6408893122264397e-10,-1.0796467028580382e-18,1.0
291.4,5.2803497314453125,0.004834679867058256,0.029160865980746315,9.787220996180508,0.00016422099372383038,-0.00024492530346868486,0.00017704319602056845,1.5500433711073916e-16,1.640889934216064e-10,-1.0754625688040414e-18,1.0
291.41,5.290246963500977,-0.018375610610074138,-0.0015880704892515612,9.786931652500764,0.00025055180753451935,0.00016571522548547587,0.00020522021904740423,1.4065105201584218e-16,1.640890556167264e-10,-1.0729867897449143e-18,1.0
291.42,5.300286769866943,-0.007460622059683775,0.023893046281451998,9.829987891789317,0.00012268694012947153,8.603597121754179e-05,-0.0001428170099044685,1.5501168143873711e-16,1.6408911781624565e-10,-1.0743458325267991e-18,1.0
291.43,5.310291051864624,-0.012555461839586604,-0.0011053853961364571,9.814909067648076,6.830664649064522e-05,-0.00022624850391917531,0.0001642996170708034,1.6938788912242028e-16,1.6408918002571838e-10,-1.0733013462974102e-18,1.0
291.44,5.32021689414978,-0.030832782269810927,-0.0051443337854155955,9.802837780547302,0.00014933783266385197,-5.526119120649704e-05,-0.0005506786014680126,1.8374208117583342e-16,1.6408924222432436e-10,-1.063550227039083e-18,1.0
291.45,5.3302037715911865,0.024837560027918915,0.014562601178662524,9.78864572237303,-0.00020209537176175824,4.438554497705425e-05,0.00015096498394996915,1.9810370742196568e-16,1.6408930444740774e-10,-1.0672009108950295e-18,1.0
291.46,5.340399980545044,0.010542390770102567,-0.03206052299239778,9.812917867249894,-0.00013352231646076678,-0.00014716591395060686,-8.659654943406969e-05,2.1245463008973447e-16,1.640893666423378e-10,-1.0682098475040446e-18,1.0
291.47,5.350318908691406,-0.008885684500726725,0.031093063959369737,9.77541788229008,-6.125370520797407e-05,-0.0002747423916188371,9.196561622659479e-06,2.267965805559288e-16,1.6408942884939923e-10,-1.0712274629758879e-18,1.0
291.48,5.360240936279297,0.0005981005468584256,-0.016261984844820863,9.804841912806127,-0.00015999484872186034,-0.00015114665677005512,3.4089893455674006e-05,2.4113911168847707e-16,1.6408949106148787e-10,-1.071333818331779e-18,1.0
291.49,5.3702404499053955,0.010385172629213242,0.006300020833944481,9.76645082350475,-0.00012293357054175713,0.0002841184906417668,-4.661239056497895e-05,2.554765871970835e-16,1.6408955325751127e-10,-1.0764066561895972e-18,1.0
291.5,5.380324125289917,-0.010250632115429278,-0.01369351193419687,9.79698822886293,4.564173634071926e-05,9.998921967207837e-05,0.0003073603736826373,-4.124306263255005e-16,1.640877165134813e-10,-1.0789563223666243e-18,1.0
291.51,5.3901591300964355,0.036777755348089684,-0.01906033635923722,9.812260619725615,-0.0001611239019304992,-1.381028932250649e-05,5.721207333504311e-05,-3.980548073394469e-16,1.6408777875083398e-10,-1.0767057835490507e-18,1.0
291.52,5.400339841842651,0.005302692207938605,0.006665791708189922,9.789896700915193,-6.683426356684912e-05,-0.00031505729608851876,-0.00020859471256761002,-3.8368624063695717e-16,1.6408784096218276e-10,-1.0751713673520989e-18,1.0
291.53,5.410288572311401,-0.04807628658928096,-0.02821738583739735,9.8063357776358,7.774307212925666e-05,-9.207766167064933e-05,0.00019646277097205982,-3.6930801707662885e-16,1.6408790318520577e-10,-1.0699500998187483e-18,1.0
291.54,5.420212030410767,0.012242673651805988,-0.02616666779588639,9.797958327135099,-0.00018176460718109458,5.537178972932007e-05,1.5757388408844758e-05,-3.549422761222981e-16,1.6408796538105526e-10,-1.0689150433908886e-18,1.0
291.55,5.430197238922119,0.005719168593427148,0.025458893582456343,9.812128053543255,-0.00014317593333457979,-0.00016885973924902144,-0.0002314833455714745,-3.405686230619516e-16,1.6408802760243642e-10,-1.0738733006136904e-18,1.0
291.56,5.44035005569458,-0.0019725573717692645,-0.012648130711398463,9.808144452332687,-0.00014794107649220432,-6.163501012354212e-05,-0.0001503080946360405,-3.2620769290627707e-16,1.6408808979104776e-10,-1.0830322166537702e-18,1.0
291.57,5.450281858444214,-0.005021855584104051,0.024319467896099956,9.7758174151252,8.829007941855514e-05,0.0004836970086823004,4.3224520585712096e-05,-3.1185188759974854e-16,1.64088151997342e-10,-1.0866118434226797e-18,1.0
291.58,5.460442781448364,0.005544326118370505,0.004955541832070679,9.795032510110024,-1.4879832722964454e-05,0.00015980414010774153,-0.00011943716626979241,3.775869599317048e-16,1.6409010471716366e-10,-1.0878938466897992e-18,1.0
291.59,5.470624685287476,-0.016298028681235397,0.006783406055762364,9.82526228588419,0.0002047177395846026,-0.00011363946983084486,4.270314360957236e-05,3.7756897710795455e-16,1.640901669306349e-10,-1.0862138613180377e-18,1.0
291.6,5.480275392532349,0.011308835702825305,-0.002762667103112185,9.77377698560291,0.00010867312020902876,4.208187447549281e-05,-5.718443245833396e-05,3.7755224973702585e-16,1.6409022913572046e-10,-1.0901911578177462e-18,1.0
291.61,5.49017333984375,0.005584684582271545,-0.0015925016522090512,9.797457784838073,-6.294969426853773e-05,3.115515261814997e-05,-0.00024178271730903098,-3.118922520797401e-16,1.640884008380096e-10,-1.0890276267417409e-18,1.0
291.62,5.500303030014038,0.00251421972090725,-0.0066785786024914735,9.792170296528981,-0.000149076856556615,-4.024493853650393e-05,-8.457761606159322e-05,-3.2624999205999003e-16,1.640884630495102e-10,-1.0889894590168472e-18,1.0
291.63,5.510486841201782,0.005617465602913855,0.021490854891940452,9.78925320670205,-1.376624076912108e-05,5.348491255788875e-05,3.439402276944291e-05,-3.405898923538341e-16,1.6408852525341484e-10,-1.0934693833571889e-18,1.0
291.64,5.5202765464782715,0.02385458582361797,-0.036301093003877405,9.814014296884777,-0.0001210175227091481,5.444042998737516e-05,-0.0002854594471305491,-3.54918830643575e-16,1.6408858746697413e-10,-1.0954652057643868e-18,1.0
291.65,5.530246734619141,-0.018357774371673814,-0.007385254380836859,9.780227805050444,0.00010804269435262369,-6.623581056529647e-05,2.612239879795164e-05,3.130065356477978e-16,1.6408675077597508e-10,-1.0984182816629233e-18,1.0
291.66,5.540285587310791,0.024808699354596068,0.018435028820161427,9.796299465796645,2.7633890667039212e-06,-0.00018475455319556718,0.00021235527381510629,2.9868825640737563e-16,1.6408681300180839e-10,-1.1000559134589245e-18,1.0
291.67,5.550252914428711,-0.024794275224135215,-0.0007779420616325852,9.81986791361463,5.750434501612862e-05,1.084313855284478e-05,-0.00019217654329084497,2.8435780422147234e-16,1.6408687521645183e-10,-1.0988684295846897e-18,1.0
291.68,5.560222864151001,-0.027038531825382756,0.012412579818365011,9.805621898293344,-3.3249686492998786e-05,-2.5589341412673645e-06,-5.469061761161665e-05,2.7002047300600394e-16,1.6408693742297204e-10,-1.098591998425024e-18,1.0
291.69,5.570349454879761,0.030319946012035297,0.01864892887009462,9.780387842104087,-0.00010853486951264765,-1.1336221782131183e-05,-3.1219919691772322e-06,2.556725615097657e-16,1.6408699963216457e-10,-1.1002490403072007e-18,1.0
291.7,5.580249071121216,0.014454642433845002,-0.014414267289673656,9.806904947135747,0.00014263239544416554,-0.00015401381463753282,-0.00025872941555253587,2.41326342753777e-16,1.6408706185123027e-10,-1.111124211529165e-18,1.0
291.71,5.590214490890503,-0.012279124544956934,0.0020598593396933497,9.787538856771473,0.00012272680248419021,2.2692506996243408e-05,2.2253180923024323e-05,2.269596432668375e-16,1.6408712405771923e-10,-1.1096885083839569e-18,1.0
291.72,5.60026478767395,0.03347083837784352,0.004568921533801553,9.807582751032854,-0.00034358762046766907,2.1737176992723072e-05,-0.0005074693610348795,2.126020683321922e-16,1.6408718626607217e-10,-1.1129200818731812e-18,1.0
291.73,5.610537052154541,0.005146210031519378,-0.008264647415238609,9.82754880173077,-0.00011743991360646052,0.0004383123395300761,8.24122480613988e-06,1.9825149073378017e-16,1.6408724847744572e-10,-1.1182441389246233e-18,1.0
291.74,5.6201958656311035,-0.007014776512818795,0.022604559495916592,9.797875378875405,-3.3244054136922486e-05,0.0004126745241294089,7.4327098006972495e-06,1.9107570560434124e-16,1.6409110018888066e-10,-1.1216379547617728e-18,1.0
291.75,5.630224943161011,0.026316298523238538,-0.002341730347619614,9.777074148262255,0.00018070501228077617,0.00024335790062860724,7.514291171226914e-05,1.9109420748037962e-16,1.640911623984483e-10,-1.1276060501958382e-18,1.0
291.76,5.640369892120361,0.001403206015745978,-0.0006561605452344707,9.759700601545152,0.00020624831776300064,0.0001123117609467925,-0.00015483056270880572,-4.839892812635734e-16,1.640893339848918e-10,-1.1358152073048194e-18,1.0
291.77,5.650231838226318,0.015534217256063985,0.020831348909450157,9.8045269575004,-0.00012963071118491003,-0.00013733208270916137,0.00036720323060897135,-4.69642964045458e-16,1.6408939619476693e-10,-1.142756261642914e-18,1.0
291.78,5.660206079483032,0.030145013386309198,-0.013606787632607205,9.829119031868577,6.158304963464571e-05,2.7116496207433967e-05,2.9040967846259743e-05,-4.55285927400615e-16,1.6408945840365112e-10,-1.147089849669345e-18,1.0
291.79,5.670268774032593,0.009388842606171401,-0.01776281089145051,9.79686039426845,-0.00020920740313054117,0.00017325712624193134,-2.3571214663310116e-05,-4.4093942188118174e-16,1.6408952061536686e-10,-1.1495682679623755e-18,1.0
291.8,5.680247783660889,-0.01526748151649454,-0.008154690480184643,9.782331665796962,-9.545943707662231e-05,-6.213012877384226e-05,0.0001289527052915439,-4.265998415308885e-16,1.6408958282033228e-10,-1.154911103177343e-18,1.0
291.81,5.690191030502319,-0.004970753175784747,0.025701401181015677,9.78331650237543,-6.898133126065737e-05,0.0004916786312257378,0.0003464542467002578,-4.1224413353592984e-16,1.6408964501838357e-10,-1.1570894789336755e-18,1.0
291.82,5.700246810913086,0.011816422238731571,-0.024112105451145543,9.82761103782144,0.00012740343352822715,0.0005290933414781007,0.00013220387741889485,-3.9785067533914434e-16,1.6408970719811008e-10,-1.155651611379876e-18,1.0
291.83,5.710439682006836,0.009800445945995216,-0.02126210516675108,9.815052796932937,0.0003071601720583077,-0.0002761837282160404,-0.00027424825610539107,-3.8349335225694025e-16,1.6408976940458256e-10,-1.1561875588864174e-18,1.0
291.84,5.720193147659302,0.01456130313487969,-0.017661877359381198,9.79749752902237,-0.00045541299157696017,-6.011864597607339e-05,1.2405956659380342e-05,-3.691061998234997e-16,1.6408983160639252e-10,-1.1488918828582628e-18,1.0
291.85,5.730211496353149,0.004300912210836841,0.0010380016689393494,9.821349836789368,-0.000411373520970136,0.00018157346373988179,0.00011392556443076882,-3.5474389159553765e-16,1.640898938269241e-10,-1.1526410918378842e-18,1.0
291.86,5.740403890609741,0.019276570825429655,-0.013062519049562571,9.780566127338561,-0.0005095087420177468,-2.741153178363748e-05,-0.00023062776723732807,-3.4035793111033173e-16,1.6408995605069092e-10,-1.1544990274640297e-18,1.0
291.87,5.750211238861084,-0.015208359320655129,-0.004237610901122667,9.795813920242178,3.650091980645376e-05,-9.6065836703786e-05,-0.00011338772457105083,-3.2599188389228916e-16,1.6409001826129596e-10,-1.160221279034404e-18,1.0
291.88,5.760218143463135,-0.015331902445086507,-0.0427675491234605,9.831965567679454,-0.0005615279713293658,0.00017723710435325744,5.0931529911066855e-06,-3.116531368334276e-16,1.6409008046960077e-10,-1.1591085163374688e-18,1.0
291.89,5.770826816558838,0.0006466052345518315,0.00808370772026759,9.806026060731053,-4.9636338393518675e-05,0.0001518502981449817,-5.080082942705279e-06,-2.9731724401033536e-16,1.6409014269584735e-10,-1.1557734684299479e-18,1.0
291.9,5.780255317687988,0.00779700038353676,0.024948481045937252,9.796072607016267,0.00027010320280982297,-3.5591792254537716e-05,-7.207917116640391e-05,-2.8297061810193216e-16,1.640902049095736e-10,-1.1597176041043443e-18,1.0
291.91,5.790189027786255,0.013219015876822289,-0.019388404404784426,9.800822886667167,-0.00019415522214256278,-0.00011402762141873411,0.00011221342256464479,-2.686258260650811e-16,1.640902671212945e-10,-1.1720508953123365e-18,1.0
291.92,5.800574064254761,-0.027183282666207162,0.024902796474400277,9.816901458457751,-0.0001097741141126821,-0.00027805281580717126,-6.598420995137993e-05,4.13641814853961e-16,1.6408843046998896e-10,-1.176955632783851e-18,1.0
291.93,5.810304880142212,-0.00864453719349851,-0.013889447832138128,9.808500529195031,-0.00029930592990745907,-0.00015738346219603682,-0.00016831765636242315,4.1363144616369957e-16,1.6408849268773498e-10,-1.1863544511298562e-18,1.0
291.94,5.820205211639404,-0.015494906286101133,0.005735371670894415,9.796200349881376,-0.0001724044061944416,-4.477472484585766e-05,0.00017155285167070502,4.1363130234923516e-16,1.640885549062317e-10,-1.19604219723854e-18,1.0
291.95,5.830221652984619,-0.018420921293707863,-0.010848702367471166,9.794305404511,0.00029950183483332094,1.065032660444119e-06,-0.00013421973665156848,4.136207567077868e-16,1.64088617116894e-10,-1.2096856953474694e-18,1.0
291.96,5.840245962142944,-0.010509253226180224,0.002749190030396087,9.814476893756408,0.0001331246007291376,0.00012670770566744447,2.5182813582334095e-05,4.136129814293557e-16,1.6408867931175209e-10,-1.2214294421580631e-18,1.0
291.97,5.85032844543457,0.0009543071972251671,0.0120690115794395,9.81116508251099,8.308492003989096e-05,0.00013050744677147531,0.00021624565369110317,3.9925117820103772e-16,1.640887414637295e-10,-1.238022468238461e-18,1.0
291.98,5.860439777374268,0.013354171832966428,0.003313613521645561,9.777945945545145,-0.00014142770954453872,8.026260492729414e-05,-0.00012095446504075221,-2.686669380133775e-16,1.6408690482993814e-10,-1.2496532897391775e-18,1.0
291.99,5.870577812194824,0.010952997604509842,-0.0005105433627698732,9.819602420689064,9.89924981660403e-06,-2.2276860756853426e-05,-0.00021862071839037086,-2.6868466019359693e-16,1.6408696705571422e-10,-1.2588016737514693e-18,1.0
292.0,5.880349159240723,0.014054770178101387,0.007795217974479971,9.785786799984244,0.0002951947667121912,4.891769824696197e-05,0.000485187567266074,-9.509618709249181e-16,1.6408892813289492e-10,-1.2651825837758954e-18,1.0
292.01,5.890205383300781,0.017288776883411877,0.014265734295686209,9.808259988503398,0.00019350479361128083,0.0003893789056310658,-0.0001018331194530822,-9.509733200762132e-16,1.640889903276537e-10,-1.272945407076724e-18,1.0
292.02,5.9005372524261475,0.0171223237887166,0.025490678778554487,9.795551799731124,-0.0005386867790322172,-2.1423828932471917e-05,-3.185275230161575e-05,-9.366240901783842e-16,1.6408905252963803e-10,-1.2811001865173611e-18,1.0
292.03,5.910283088684082,0.01804851309775595,0.018128673955875203,9.820183472044892,-0.00020864997099462847,0.00019672882082392504,0.0003449194577584881,-9.222602451876894e-16,1.640891147320309e-10,-1.2798765170974981e-18,1.0
292.04,5.920192241668701,0.019449861887319782,-0.033637843189597984,9.79712395706297,5.0603724817453585e-05,0.0002006984365979693,-0.0002596083110553606,-9.078929661598173e-16,1.6408917696280643e-10,-1.2764630163414596e-18,1.0
292.05,5.930220365524292,0.008749956221259533,-0.01109930881416964,9.794952328930622,1.6022553753798146e-05,-2.852581655583225e-05,0.00010387404591765145,-8.935299123127396e-16,1.6408923917364393e-10,-1.279788294292311e-18,1.0
292.06,5.9402782917022705,-0.019754272093707035,-0.011758117671674473,9.82381585059726,-0.00023774228340783267,-8.1415561441635e-05,0.0002919579665097803,-2.0406133475972686e-16,1.640874108038263e-10,-1.2844665667949174e-18,1.0
292.07,5.950279474258423,0.0031902506542861955,0.007528880685733021,9.78132766059583,3.353142924161538e-05,-0.00020583141721693883,3.7197468843215265e-05,-2.040567805115232e-16,1.6408747301456924e-10,-1.2891105492885446e-18,1.0
292.08,5.960274696350098,-0.013168756014636981,0.0016554751356481633,9.776925114853789,0.0003151536740527534,-3.4784104087037415e-05,-0.00020987139610764645,-2.1841196665671514e-16,1.6408753521796646e-10,-1.2908019274183725e-18,1.0
292.09,5.970287084579468,-0.01703969990109069,-0.02336206664091081,9.7919781195881,-1.9949975095775894e-05,-0.00010872968865719992,0.00015621514066311253,-2.3274375819535044e-16,1.6408759743699706e-10,-1.2964019310375317e-18,1.0
292.1,5.980267524719238,0.011231185755051573,0.002295404350553055,9.806351847589694,-0.00018195258512560355,-0.00019053908336910777,-0.00024525836809919873,-2.470865877277393e-16,1.6408765966193091e-10,-1.2902813017644435e-18,1.0
292.11,5.9901509284973145,-0.010552390456282326,0.006061754468079689,9.813705688499837,-4.004049515695122e-05,0.0001882387268922172,-8.49451373879454e-05,4.279911499716849e-16,1.6408961245296424e-10,-1.2924617078243891e-18,1.0
292.12,6.0004777908325195,-0.018713566740777215,-0.013653739450435222,9.785353096761252,-0.00011796517033893447,-8.957715819393357e-05,0.00019438083574698853,4.136462383108451e-16,1.6408967466272925e-10,-1.297431595733179e-18,1.0
292.13,6.0103466510772705,-0.01691810799752292,0.019344469911683725,9.774252878480544,-0.0001514230826053215,3.2203101446675235e-05,9.802013169604862e-06,3.9929012891660595e-16,1.6408973687073087e-10,-1.309224520301717e-18,1.0
292.14,6.0201451778411865,-0.01246056958077522,0.010336434740584339,9.792737808734156,-0.0002041227681003513,-4.9348792435981874e-05,7.844569195762003e-05,3.8492511495856263e-16,1.6408979909584815e-10,-1.3204741546037879e-18,1.0
292.15,6.03030800819397,0.007642084101133803,-0.014496489847086876,9.836151466838855,-4.973438705379097e-05,0.0001251596437869977,1.1210156574442369e-05,3.705540973996412e-16,1.6408986130818572e-10,-1.320025276686117e-18,1.0
292.16,6.040363550186157,-0.00724147679265265,-0.00708170630709917,9.789053224024117,-5.480360570084875e-05,-0.0005744194186429805,-0.00020763663609662237,3.5618891387818326e-16,1.6408992351021647e-10,-1.3254779844282738e-18,1.0
292.17,6.050232648849487,0.0007731527385700193,-0.01814087751040557,9.78853439682679,7.093740207936068e-05,0.0001743427862806421,0.00011613986759266128,3.4181512443477297e-16,1.6408998567222405e-10,-1.3304483979772698e-18,1.0
292.18,6.060272693634033,-0.0134184776542838,-0.007417863167568045,9.833038799040603,-7.920456604673516e-05,-0.00016290838086260187,0.00020275139074443183,3.274640932184438e-16,1.6409004787032998e-10,-1.3335529915643448e-18,1.0
292.19,6.0702784061431885,0.001526252014470295,0.019150880641005622,9.79277490126368,-3.0978225705480444e-06,0.00037921692951044847,-0.00010996716582207654,3.1310637541623924e-16,1.64090110080919e-10,-1.3332639149053512e-18,1.0
292.2,6.080246925354004,-0.051818876852390054,-0.0013534447002162828,9.781664070670423,-0.0002916917909423995,0.00013514989126167586,0.00016391952289865615,2.9877485539061605e-16,1.640901722866126e-10,-1.330444256186654e-18,1.0
292.21,6.09018874168396,0.006028698125235784,-0.019233919379522898,9.802265822985769,-0.0005317504265550424,0.0003349446779415729,-3.9837172956916365e-05,2.8444604441165377e-16,1.640902345025615e-10,-1.3262332974949486e-18,1.0
292.22,6.100388765335083,-0.01138934503342247,-0.03089656387517021,9.82330414544545,-4.235076229117273e-05,1.8875527283643077e-05,-1.6283470376160917e-05,2.701157647876809e-16,1.6409029672005557e-10,-1.319596615839594e-18,1.0
292.23,6.1103456020355225,0.0188167850210749,-0.006243501700604326,9.787069715520458,-0.00019433693142241945,-0.00011866848457412198,8.056526723314898e-05,2.557842000645765e-16,1.6409035894677052e-10,-1.3205148165864601e-18,1.0
292.24,6.120186805725098,0.040542513218899526,-0.0024583834667339433,9.806280684517429,0.00015558615209740914,0.0004679717608580258,-0.00011922798943784973,-4.3366182869327986e-16,1.6408853056610128e-10,-1.3297355863776471e-18,1.0
292.25,6.130414009094238,-0.01084515476710441,0.008242724763540238,9.780026870571222,-0.00021475990130292793,-0.00010760258890766317,0.00013374284928764142,2.2707159794281027e-16,1.6409048335118842e-10,-1.3312653019947754e-18,1.0
292.26,6.140258073806763,0.003590906297815379,-0.001880303149170308,9.806928747193718,0.00011541920891616443,-4.541357554106645e-06,9.87387044988248e-05,-4.552038744013131e-16,1.6408864661147787e-10,-1.3311966607110759e-18,1.0
292.27,6.150214910507202,0.014457529808677207,0.02476573747968578,9.803192256049739,0.00020019502614116908,-3.076390539490374e-06,-0.0002842316317173877,-4.408581666103163e-16,1.6408870882588326e-10,-1.3308943368391916e-18,1.0
292.28,6.160187005996704,0.029953726119390397,-0.00138696673161762,9.815945904255448,6.50426892656399e-05,-0.00010337921266636847,0.0003260839015771517,-4.265165122619042e-16,1.6408877103976435e-10,-1.335142867985436e-18,1.0
292.29,6.170369863510132,-0.005886608887391188,0.027932083721922497,9.791965983048344,-0.0004297027066127131,0.0002128965131027804,6.65376810553466e-05,-4.1214211540682296e-16,1.6408883325004193e-10,-1.3400821053723038e-18,1.0
292.3,6.180235147476196,-0.01050793164472553,0.018030772874911432,9.820067892266918,-2.1337702239662097e-05,3.9983032295648856e-07,-0.0001705145969414965,-3.977612447004016e-16,1.6408889544101252e-10,-1.3326013937784306e-18,1.0
292.31,6.19031023979187,0.0008852744651902916,0.01934062042346908,9.816839042914621,0.00010213289280973713,-1.8856055441458682e-05,-0.0002980019678657907,-3.8338721550960825e-16,1.6408895764340102e-10,-1.3322136131635803e-18,1.0
292.32,6.200307607650757,-0.013120672539473558,-0.011719722833271488,9.816518317428827,-0.00033987696780705083,0.00018511004873762504,-4.653451660287774e-05,-3.6900048841344264e-16,1.6408901984976984e-10,-1.3332116603624377e-18,1.0
292.33,6.21025824546814,0.014396788848260806,-0.005045252958416236,9.782934005245133,-0.0003297629164429993,0.0001576638505901539,3.1254573119705234e-05,3.2047140875843135e-16,1.6408719150592578e-10,-1.3301095515020524e-18,1.0
292.34,6.220182418823242,-0.014811613618233278,-0.014109523802306961,9.815323730347428,0.00016745168256987415,-0.00036876443717496793,0.00024335939009798702,3.3484649403560655e-16,1.6408725372200952e-10,-1.3303849906201207e-18,1.0
292.35,6.230429410934448,-0.0058304528258711534,-0.0033831255043595835,9.804159209114948,-2.6622034774794166e-05,-7.740812552593588e-06,0.00048515519778215803,3.4920909302401045e-16,1.6408731593000723e-10,-1.337602142067872e-18,1.0
292.36,6.240359783172607,-0.009294906650721566,0.04345749351176673,9.803664444808085,-5.5179170861443986e-05,1.5473004359934132e-05,-2.9060551004489854e-05,3.63540990110181e-16,1.640873781357377e-10,-1.3462212166500315e-18,1.0
292.37,6.250404119491577,-0.030449521896552974,-0.02038313969036693,9.80071616482001,-0.00015372001502137657,-0.0006129150663831377,-0.0003221444883969512,3.778792429291439e-16,1.6408744035812926e-10,-1.348635265160582e-18,1.0
292.38,6.2605016231536865,0.0013228615532141664,0.014176425427762027,9.793078349360355,-8.596427579964342e-05,-0.00025381374067120056,1.4824134535107715e-05,3.922274338149658e-16,1.6408750258294948e-10,-1.3492196688849519e-18,1.0
292.39,6.270614147186279,0.010722705186484155,0.02003836422804655,9.824068685287362,0.00017176000511616836,-4.842328078467631e-05,-0.00034967814554445845,4.0656692165242583e-16,1.6408756480623099e-10,-1.36131535434708e-18,1.0
292.4,6.280247926712036,-0.013419704051371842,0.01423904399445596,9.79828323966846,-0.00022251476264919178,0.00016959255083754212,-6.215475127496379e-05,4.209197285210047e-16,1.6408762702502046e-10,-1.368731459879463e-18,1.0
292.41,6.290226459503174,-0.015777711487833312,-0.0024246608890934056,9.82218945548225,-2.6057436965385355e-05,0.00026415327725701947,0.00022159879504945226,4.352835442900961e-16,1.6408768925233044e-10,-1.3699754178129956e-18,1.0
292.42,6.300281763076782,-0.01372996034395284,0.01863123554780088,9.829974364813527,-5.043696854863431e-05,4.231260469874863e-05,-0.0004041817197136302,-2.3260631290583523e-16,1.6408585257744264e-10,-1.369084945367593e-18,1.0
292.43,6.310356140136719,-0.014510375693026632,-0.01533491365195687,9.774243697746112,-0.000332714695772952,-0.00012244615778031327,-0.00029685427576597157,-2.469412248810514e-16,1.640859147752467e-10,-1.364226545641398e-18,1.0
292.44,6.320171356201172,0.016178469072082508,0.019824499443839835,9.814523439752104,8.378487796704607e-06,-5.2491153042129055e-05,-0.0003428061856971099,-2.613002000253217e-16,1.6408597696708762e-10,-1.3665489552628104e-18,1.0
292.45,6.330304861068726,-0.017598193090586026,0.012277764602742294,9.817687920624133,0.00010672048355863828,-0.00025405503723541315,-0.00012995510421272359,-2.756541353681362e-16,1.6408603916689705e-10,-1.3745515075567247e-18,1.0
292.46,6.340249538421631,0.014363844071201368,0.02435810211766621,9.799369343400922,7.273068977966588e-05,-5.263266735696115e-05,8.702175158996932e-05,-2.9000970311569165e-16,1.6408610136280466e-10,-1.38068340483131e-18,1.0
292.47,6.3502724170684814,-0.01201547498694099,0.008389517742992356,9.795499836768547,-5.789979135799218e-05,0.0003007012940104429,1.6665216096877345e-05,-3.043774072536343e-16,1.6408616357815935e-10,-1.380113393429854e-18,1.0
292.48,6.360273838043213,0.01715863861400214,0.008970889541576118,9.7907547875948,6.235417393289816e-05,-3.948411718640329e-05,0.00025727532059772177,3.6352917098272664e-16,1.6408812465197518e-10,-1.3810691947580092e-18,1.0
292.49,6.370517730712891,-0.029744841628751295,-0.00046874740225205506,9.793121902492597,-0.00024774834274553996,-0.00036319258200090724,-9.655611845829814e-05,3.4915528891062066e-16,1.6408818685696317e-10,-1.3857203611002852e-18,1.0
292.5,6.3802149295806885,0.005726094603100013,0.014795180444582319,9.792392914721908,-9.452899793395216e-05,0.00017853568944342204,-0.0006256580422950576,3.347989708427279e-16,1.6408824906845379e-10,-1.3919960000243155e-18,1.0
292.51,6.390136957168579,-0.007675774647213531,0.03180416390833896,9.84653386993566,5.466458636436246e-05,0.00018623604816672424,-0.00024255926756171431,3.2043335680468355e-16,1.6408831128798095e-10,-1.3912413353104403e-18,1.0
292.52,6.400421619415283,0.010989642982041204,-0.011851230647762362,9.793293276698522,0.00010944967208225491,-0.00036446764199536165,-0.0003281850683075289,3.061055045865243e-16,1.6408837351024203e-10,-1.3870875488955359e-18,1.0
292.53,6.410269498825073,0.00329593887325738,0.026703026157563505,9.80726445226229,-2.5277808078588143e-05,-0.00038852973357568005,0.0001656744825127179,2.9177161596686837e-16,1.6408843573298581e-10,-1.3832920565733332e-18,1.0
292.54,6.420165300369263,0.025185965569992322,-0.02156378840439485,9.819716770776513,0.00031134749573336794,-0.0001293176312346109,-0.00019392535198154288,2.7743211444294845e-16,1.640884979400191e-10,-1.3807437201675793e-18,1.0
292.55,6.4303083419799805,-0.0026848735219169003,-0.003296680447950369,9.809041349010135,6.998192814660222e-05,-1.0220686191470905e-05,-0.0001380123324241604,2.630944099724268e-16,1.6408856014572265e-10,-1.3785660062931074e-18,1.0
292.56,6.440267562866211,0.01869758619871171,0.003042381610852104,9.818565115741114,3.087485315956811e-05,-0.00011226846049041827,0.0001037753505627005,2.4875642207602486e-16,1.6408862235899136e-10,-1.3873890503478049e-18,1.0
292.57,6.450239658355713,-0.0021012497986503953,-0.009909433761565086,9.77421408794258,-1.1109647867855995e-05,-0.00016156770673463245,-0.00019646822835462003,2.3440484986773424e-16,1.6408868456535842e-10,-1.3893103760122003e-18,1.0
292.58,6.460354804992676,0.0004996064239223206,-0.02664792673131701,9.812573278982228,-0.00010307125747568025,-0.0001656460901636834,4.501785379292808e-05,2.2005094049500568e-16,1.6408874677693183e-10,-1.3914699002037767e-18,1.0
292.59,6.47027587890625,0.015674226595065288,-0.003202397570740759,9.790461617898936,0.000154588053673829,-1.9514478976256843e-05,0.0001671075503753971,2.2003771651357267e-16,1.640888089817229e-10,-1.3987906412941188e-18,1.0
292.6,6.480199813842773,-0.016214156495555635,-0.00576447383850608,9.808044233034446,-0.00015074512786226524,0.0005486815832269407,0.00016519139605090878,2.2002929816728916e-16,1.6408887119951617e-10,-1.4055605670598498e-18,1.0
292.61,6.490243673324585,0.005349156240655724,0.002289520716753558,9.79957184629461,-0.0002858644932033558,-0.000170695244122625,-4.885904495355095e-05,2.2001251360085753e-16,1.640889334000238e-10,-1.4100291121047034e-18,1.0
292.62,6.500375747680664,0.011110931999250825,0.0004704523072420727,9.772230623397782,0.0001564519974676934,0.00011564765494586123,-0.00046716305047758006,2.2001821287738305e-16,1.640889956088577e-10,-1.4156823740999344e-18,1.0
292.63,6.510297775268555,0.013506265880700422,0.019792979594440843,9.78951237960017,-0.00017126366590829634,0.0002651751821861072,0.00019168580948493216,2.2000481180489866e-16,1.6408905780499513e-10,-1.4219246677427393e-18,1.0
292.64,6.520219326019287,0.009811966459631467,0.012777575472702049,9.79031822901389,-0.00015494995755351904,-7.086971448025785e-05,1.4820049669789197e-05,2.1998843267009681e-16,1.640891200164094e-10,-1.425408460106205e-18,1.0
292.65,6.530316352844238,-0.016346208656609126,-0.012562006422201706,9.805382094828232,-9.86878396071064e-05,0.0005070728274367465,3.3006100430482326e-05,2.34344425445925e-16,1.6408918221321863e-10,-1.4296890758492842e-18,1.0
292.66,6.540284156799316,-0.006904254901256088,-0.002101675427652675,9.79507333619301,-8.637397600330643e-05,-0.00015798205298173115,3.7204652052342644e-06,2.3432618842263894e-16,1.6408924440662472e-10,-1.4275967625064142e-18,1.0
292.67,6.550260066986084,-0.024151803849570476,0.026413266111314282,9.784719371017898,-0.00018987721076883852,5.092808981496285e-05,-1.5731982170627284e-05,2.3431741756895675e-16,1.6408930661339082e-10,-1.4289281835114062e-18,1.0
292.68,6.560606479644775,-0.021713821127661532,-0.012081717348746872,9.792221011322818,-0.00037535161475048723,-0.00017826483708759783,7.023873087747799e-05,2.343252572496463e-16,1.6408936883082108e-10,-1.4295502987048269e-18,1.0
292.69,6.570295572280884,-0.006969774391717781,-0.005391788572768518,9.794647253162234,3.182078933470874e-05,2.9726790813904805e-05,0.00042564927458909046,-4.479501161359297e-16,1.6408753213546915e-10,-1.428312622414773e-18,1.0
292.7,6.580223560333252,0.0077307698821182476,0.011442599824198482,9.79811025491247,-9.395530046674727e-05,0.00010820369791781293,0.0002786870310131796,-4.623147885700273e-16,1.640875943488363e-10,-1.424188933838934e-18,1.0
292.71,6.590146541595459,0.011230926646646525,0.01940879785685183,9.792930648541457,-6.044696502164406e-05,9.402649355881087e-05,4.701863456640322e-05,-4.766679388507685e-16,1.640876565540546e-10,-1.426738763587001e-18,1.0
292.72,6.60045599937439,-0.014638001583289744,0.004246538299145039,9.829883945798896,-5.362360200647392e-05,0.0002063420512524914,0.00025559594667341507,-4.910129682760425e-16,1.6408771877332936e-10,-1.4329339064084786e-18,1.0
292.73,6.610414266586304,0.040660982155225935,0.003661738923041349,9.788818484844208,4.3202632974022024e-05,-0.00011454828950085802,0.00012337313234812717,-5.053466188255754e-16,1.6408778096547604e-10,-1.434337561929249e-18,1.0
292.74,6.620249032974243,0.0022537644361355896,0.04100935192960266,9.801698806176182,-0.00028323541534025704,9.060641044424887e-05,2.197813273292176e-05,-5.19694314887503e-16,1.640878431613342e-10,-1.4288570565869267e-18,1.0
292.75,6.630347013473511,-0.011558636115380442,0.01311928198825526,9.787393111607809,0.0002375403954482236,0.00020642681624578123,0.00016949589598514266,-5.340585041794912e-16,1.6408790535946705e-10,-1.4274799315131499e-18,1.0
292.76,6.640237331390381,0.017910110064397234,0.03751898070004447,9.810740884857085,0.00016724600271147202,-6.240039611762099e-05,0.000256450621196277,1.4822354782850278e-16,1.6408606865488466e-10,-1.4262429841902373e-18,1.0
292.77,6.650383949279785,-0.011713776662176746,-0.00778766886660949,9.818826194819934,0.00027074133664116244,-8.872557472642226e-05,-0.00027688402766023345,1.626023751772762e-16,1.6408613087344514e-10,-1.4290478834639425e-18,1.0
292.78,6.66032338142395,0.012985154528787636,0.0013553295919035019,9.821630655206254,-0.00015987867495757008,-6.607490571006705e-05,0.0001353299848435681,1.769645239554265e-16,1.6408619308674937e-10,-1.4272932165454773e-18,1.0
292.79,6.670439004898071,-0.013866663985163152,0.005186885075248728,9.81738231030319,0.0005238033752392791,3.546425280167553e-05,8.763038187623438e-05,1.913246413075596e-16,1.6408625529465692e-10,-1.4321540239014802e-18,1.0
292.8,6.680279731750488,-0.017085856019220514,0.009467981597940605,9.824730282592034,1.2494587368336243e-05,-0.00022018901857646518,3.5656430538620684e-05,2.0567988984264958e-16,1.640863174816697e-10,-1.4369266900411224e-18,1.0
292.81,6.690245866775513,0.04140247291441884,-0.013511546151680105,9.77450598080481,0.00017436747650720127,-0.00013610087622353758,6.973087537219286e-05,2.2001660981934633e-16,1.6408637967752356e-10,-1.4440399665373223e-18,1.0
292.82,6.700526714324951,0.0010518999496863678,-0.02587763358895749,9.803754698585436,-0.00016981755382260662,-0.0003947600310584803,0.0002688750516688979,2.3434874611073694e-16,1.640864418781813e-10,-1.4430186007123886e-18,1.0
292.83,6.71036434173584,-0.0052525560724728994,-0.022845791265569848,9.797594623285367,-5.7772833386914554e-05,-0.00011541794200688558,0.00012925253848713376,2.4868925443303713e-16,1.6408650408550858e-10,-1.4480703848286172e-18,1.0
292.84,6.7203474044799805,0.015180283424584854,-0.0012285335133373292,9.770513818444703,0.00023399422549258772,0.0001903214683924291,0.00017264992945269624,2.630438480330514e-16,1.640865662811533e-10,-1.4528881194963584e-18,1.0
292.85,6.730433464050293,-0.0022847212048604094,-0.010970443570292544,9.819510507993229,-0.000219418866379564,2.992378463028448e-05,-0.00021578959273941154,-4.0485982836129734e-16,1.6408852735717008e-10,-1.4502052690402352e-18,1.0
292.86,6.740213632583618,0.0018009591016677844,-0.015990767031816375,9.804346716320463,-0.00024399470942639839,-0.00014898409455120907,5.2446924695441365e-05,-3.9049266513511913e-16,1.6408858955925545e-10,-1.4464362358773297e-18,1.0
292.87,6.7504589557647705,-0.011225268502557575,-0.035190676656826736,9.797552212299324,-5.4838386136063844e-05,6.564202862473878e-06,-9.101575884705326e-05,-3.7612716275027103e-16,1.6408865177155835e-10,-1.4418935137857325e-18,1.0
292.88,6.760644912719727,0.004893635656166008,0.009763053098955735,9.818990996557927,0.0003026396761708005,0.0005423055911077721,0.00024881797688748575,-3.6174139401783147e-16,1.6408871399140685e-10,-1.4370409533155677e-18,1.0
292.89,6.770243167877197,-0.015566311795354185,0.027213094250127277,9.807626857648032,9.729483768632137e-05,2.9614828039829688e-05,-4.623053613860469e-05,-3.473745929803323e-16,1.640887762017751e-10,-1.4399608727308157e-18,1.0
292.9,6.780194044113159,-0.0053486278973278656,-0.012506479990007093,9.803520069837035,0.00024235579474852242,-4.37229336445679e-05,0.0002193598169938431,-3.330174492543131e-16,1.6408883838792872e-10,-1.4470160331461797e-18,1.0
292.91,6.790335655212402,-0.015587750909065824,0.03298429051171373,9.768217637253308,0.0003563162445401078,6.010040871040047e-05,0.00016375856011371638,-3.186665689401868e-16,1.6408890058692713e-10,-1.4544104897185039e-18,1.0
292.92,6.800283908843994,0.017496842516821078,-0.01213411006253451,9.81508958516271,-0.000425782136181922,-4.7512086495132286e-05,2.9397581592073532e-05,-3.0432297538125336e-16,1.6408896279601731e-10,-1.455010033142585e-18,1.0
292.93,6.810196161270142,0.006908139383871596,0.015010261951821926,9.795947705056875,-0.00022977594122738262,-0.00018434020864863509,4.704630357483151e-05,-3.043399171388466e-16,1.640890250046036e-10,-1.454366206513781e-18,1.0
292.94,6.820115327835083,-0.011572413193884697,-0.015400840783250467,9.803183814765895,-5.750148020002349e-05,0.00029218001028636807,0.00015099576704669755,-3.0435112394694524e-16,1.6408908721482133e-10,-1.4534407869771193e-18,1.0
292.95,6.8303916454315186,0.019375372252556408,-0.0059919414044651625,9.791014272661796,-0.0003015300809007912,-0.00016606384618447488,0.0002076936700610787,-3.0435762578324847e-16,1.6408914942216503e-10,-1.4508162076641132e-18,1.0
292.96,6.840271711349487,-0.004409281567216959,0.022147898557992127,9.832681993302629,6.070779543478393e-05,-0.00020512797307258168,0.0002983509089371766,-3.1871531913294447e-16,1.6408921163024e-10,-1.4511761629534374e-18,1.0
292.97,6.850310802459717,-0.014793081525593853,0.03887916586405531,9.785451090387125,-3.231050435516448e-05,0.00016891540612278027,6.192726887847313e-05,-3.330567479486181e-16,1.6408927384413754e-10,-1.4591647494072297e-18,1.0
292.98,6.860449314117432,0.005295882343392644,-0.009364386558125161,9.796343804204128,0.0002867303895797396,-0.0001987821025118624,0.00021858770114464377,-3.473970439340571e-16,1.6408933604453768e-10,-1.4608759768483056e-18,1.0
292.99,6.870236396789551,-0.006149148397083775,-0.00903989266153549,9.829315924127132,-6.863539317847789e-05,0.0003204284931698312,-0.00017791306037956493,3.2053643154207465e-16,1.640874993043206e-10,-1.4634117301306348e-18,1.0
293.0,6.8802080154418945,-0.0011818915228441126,0.017509427300997613,9.810128568714543,-0.00016023813036356165,0.00038301292043354184,0.00024335866432244482,3.061946545022184e-16,1.6408756152740956e-10,-1.4614983968220448e-18,1.0
293.01,6.890260457992554,0.014660266242055638,0.02017679992924657,9.802080706452678,-0.00017258218217854515,0.0002532421024168642,0.00012786056504574108,2.9186246774608203e-16,1.6408762375238981e-10,-1.4572882767194233e-18,1.0
293.02,6.9004082679748535,0.02439978977308237,0.01482384182130125,9.785367036974415,-0.00016339241205341046,-0.00011576750483087927,-0.00046778272453167785,2.7752664622922807e-16,1.6408768597523852e-10,-1.452512307977216e-18,1.0
293.03,6.9102513790130615,-0.019896591925999994,0.023107655142977444,9.818091772625412,-3.923024927263546e-05,6.23169845631514e-05,0.0004819895967020395,2.6318726930476805e-16,1.6408774818140352e-10,-1.4520864758641104e-18,1.0
293.04,6.920169353485107,-0.0005379251365959471,0.0006370965331285143,9.80964472033371,-7.026568521762405e-05,4.907033948448218e-06,0.00012707384660189748,2.4882329833404623e-16,1.6408781039186546e-10,-1.4600606029469036e-18,1.0
293.05,6.930309534072876,-0.008676269909587427,0.007699674253466985,9.830016870200774,0.00018886004463933938,0.00011958842278716125,-3.254076865495718e-05,2.344663378133049e-16,1.6408787260671274e-10,-1.4623503870562016e-18,1.0
293.06,6.940281867980957,-0.004701425560409477,-0.011010548276471629,9.806639262294121,-4.429737162496155e-05,-6.311704678105361e-05,-0.0001012872934794263,2.2010793480160722e-16,1.6408793481123974e-10,-1.4633999399206514e-18,1.0
293.07,6.95018458366394,-0.024774329391283944,0.0016631941012969326,9.78541999758412,-0.00011251464796803219,8.72982671526916e-06,-8.57874824122589e-05,2.0576234670711789e-16,1.6408799701545843e-10,-1.4685749983327975e-18,1.0
293.08,6.960444927215576,0.022401621143773115,0.003634717074698911,9.778842917285038,0.00011299016709067,-7.865235486277699e-05,-0.00027421113175937366,1.914043260111712e-16,1.6408805922649107e-10,-1.4677523511438453e-18,1.0
293.09,6.9702818393707275,-0.01257417143919486,0.0009072213023906299,9.77304878778155,-2.872071384207804e-05,-7.405068492078293e-05,-0.00011535798574247374,1.9141165453707215e-16,1.640881214792976e-10,-1.4727091629698397e-18,1.0
293.1,6.980310916900635,0.012654075002391279,0.0029851752489559414,9.79386551926884,0.00013232921286474136,3.965401823585015e-05,-4.617234088190433e-06,2.057666454378932e-16,1.6408818369928967e-10,-1.476794731177695e-18,1.0
293.11,6.990397930145264,-0.00843574773411932,-0.00783490168863758,9.76951722537377,-0.0002050091117257539,-0.0004089837067160447,5.30333402710737e-05,2.2012832907994947e-16,1.6408824590413024e-10,-1.4801333053145572e-18,1.0
293.12,7.000410556793213,0.014269333949859941,0.004017455732558565,9.815864539108876,-0.0004633315450626044,2.1296238746773464e-05,-0.00018123092703769568,2.344832814651644e-16,1.6408830810390195e-10,-1.4821710625517673e-18,1.0
293.13,7.010281801223755,0.02507908755203277,0.0021189882325492204,9.77148885137127,-8.581659708874777e-05,0.00014106639889364814,7.127394701730535e-05,2.488289870409707e-16,1.6408837029615144e-10,-1.480506863114026e-18,1.0
293.14,7.020202398300171,0.0013578686938211133,0.001818053204042816,9.804563328681018,8.286595775820587e-05,2.3543160182001504e-05,-4.738823608332346e-05,2.631859185456021e-16,1.6408843250642773e-10,-1.4860183123095265e-18,1.0
293.15,7.030491828918457,-0.02016672304963802,-0.027324369804749147,9.81317895298879,4.947997840897916e-05,2.082235702252631e-05,4.9135574161107665e-05,2.7756572080723927e-16,1.6408849470038121e-10,-1.4848681679481993e-18,1.0
293.16,7.0401952266693115,0.014500484869363768,0.009506298063601407,9.795809305296135,3.073807419382919e-05,0.00032137210324040987,8.23766694779147e-05,-3.903226813274753e-16,1.640866580028071e-10,-1.4836826285872842e-18,1.0
293.17,7.050238370895386,0.011839580334131645,0.006197061226310835,9.75153002908183,0.00019262068836729056,0.00011324714993825752,0.0002536977317214145,-3.7595066066650464e-16,1.6408672021388925e-10,-1.480256138554146e-18,1.0
293.18,7.060451507568359,0.024299366085783182,0.009885294757420268,9.796205386612257,8.257836389524279e-05,-0.00013457992119785057,-0.00019445018971120831,-3.6157325462127235e-16,1.6408678241596332e-10,-1.4801798090796116e-18,1.0
293.19,7.070204019546509,0.02001142619095416,-0.025919134276461486,9.794710751861608,-0.00032563028707252714,3.1983735382159906e-05,-0.00014585756070204813,-3.471942921710809e-16,1.640868446314412e-10,-1.4801838886750178e-18,1.0
293.2,7.08034610748291,0.0028378163851303507,0.02902740720669385,9.809844712793,0.00022471553178692835,4.138489198099361e-06,-0.00036431880650428336,-3.32834622837407e-16,1.6408690684392498e-10,-1.4831776884464096e-18,1.0
293.21,7.090340614318848,0.021731862313760987,-0.024244489881516132,9.775982764373564,-0.00010209745687359796,2.4070663425666493e-05,-0.00027451360908532194,-3.184734478581062e-16,1.6408696905007612e-10,-1.4918164689745e-18,1.0
293.22,7.100298643112183,-0.02607887796417436,0.005493511776565821,9.809146353346549,-2.6579201769487034e-05,0.00022094886858588464,-0.00022245057247023136,-3.041398773512993e-16,1.6408703125283628e-10,-1.4897398810612045e-18,1.0
293.23,7.110278367996216,0.019267133215305418,-0.0034883662682892364,9.800627614831086,-2.351451931547921e-06,9.327259222743025e-05,-0.0002198833072817564,-2.8980571380302777e-16,1.64087093471745e-10,-1.4861358483352058e-18,1.0
293.24,7.120269298553467,-4.984706822268999e-05,0.0009795909180885826,9.827166421262724,0.0002055703658998209,-0.00012189808856524343,0.00016784368655881881,-2.7546319695129785e-16,1.6408715568302872e-10,-1.4968208412732656e-18,1.0
293.25,7.13034200668335,-0.04604094836939605,-0.004291077565559142,9.793796394638159,-7.36398563596457e-05,0.0003261527645135997,5.686002544757272e-05,-2.6111460156666255e-16,1.640872178878081e-10,-1.5044116213015258e-18,1.0
293.26,7.140157222747803,0.009587343876985973,0.02837349441195704,9.810624768240164,0.00033968267300436795,0.00032183600598315114,0.00015547203762285772,-2.5392650194774156e-16,1.6409106960815605e-10,-1.5068544097990521e-18,1.0
293.27,7.150289535522461,0.005974030832388994,0.006109017606120549,9.790313243404436,7.483111112795759e-05,-0.00029182623779490125,-0.00014522843788636442,-2.539292094203526e-16,1.6409113182613326e-10,-1.5076959039535186e-18,1.0
293.28,7.160356521606445,-0.01153230254824474,-0.009305645716390459,9.787058329530186,-0.00020623222579676699,9.573569900137893e-05,-0.0003247465983888853,-2.539177172439834e-16,1.6409119404426223e-10,-1.509056936692157e-18,1.0
293.29,7.17020320892334,0.014679507190628108,0.006846884940596205,9.774769008310807,0.00014450242712205592,0.00020960352795784296,0.00011827630654052937,4.283487962684768e-16,1.640893573563445e-10,-1.511356595338571e-18,1.0
293.3,7.180269956588745,0.023582925932072077,-0.011614629852808629,9.81035537929144,-4.249402006506225e-05,-9.050421154565283e-05,0.00010611350210812875,4.2118709010574777e-16,1.640894278364713e-10,-1.5125124819026042e-18,1.0
293.31,7.190417051315308,-0.007693300173016101,0.001064738713702867,9.811596113835774,7.727315122352606e-05,6.282081596812134e-05,4.010682178404709e-05,4.0681693329001105e-16,1.640894900413613e-10,-1.521529701646053e-18,1.0
293.32,7.200259208679199,-0.0012910981228608728,0.021808775314605764,9.800281938682037,0.0001244432294460062,-0.00011264829846984996,1.5519478766760193e-05,4.0681790558825373e-16,1.6408955224211008e-10,-1.5308691015548618e-18,1.0
293.33,7.210245370864868,-0.0031149827406875127,0.005531920812185433,9.816031065386113,-3.7704575883438454e-05,0.0002634538761692206,3.886209008368133e-06,4.068116158239685e-16,1.6408961445446548e-10,-1.5359083178289202e-18,1.0
293.34,7.220187187194824,0.0019318527375256221,-0.015961708195727616,9.792028894861996,0.0001258717901382454,2.229532095818083e-05,-8.338587372323402e-05,4.0679838879976146e-16,1.6408967665880293e-10,-1.5432961567528982e-18,1.0
293.35,7.2303831577301025,0.008889306681987869,-0.002902053511712971,9.810115714798524,0.0002153241184179873,-0.0003065376590638638,-0.00032105269857276035,4.068079760121158e-16,1.6408973884767056e-10,-1.5527653682146475e-18,1.0
293.36,7.240191221237183,-0.020995744071109154,-0.01796174061360024,9.81189150968984,-2.3260929820150455e-05,0.00017696255554286658,0.00023806395374776536,-2.6112937453388574e-16,1.6408790214062186e-10,-1.5630194012544774e-18,1.0
293.37,7.250210762023926,0.019679464491600657,0.02452711737193135,9.782170715712773,-1.9523072598579206e-05,0.00024408133190536088,-0.00019469985714794415,-2.467807708222838e-16,1.6408796434553225e-10,-1.5641163330672833e-18,1.0
293.38,7.260396957397461,0.0044551708939884836,-0.01851969275401296,9.808934997686183,-0.00022557982125872097,0.00029206740762700303,3.38513250060686e-05,-2.3240679935701737e-16,1.6408802657159412e-10,-1.5566689728994202e-18,1.0
293.39,7.270242214202881,0.004406871048280654,0.010492512994595606,9.780301060271958,0.000149468364716857,0.0002410262496558336,-0.00046474616582312876,-2.1803315619352337e-16,1.6408808879981007e-10,-1.5606797358948367e-18,1.0
293.4,7.280238151550293,0.008331120818480352,0.003698642190423317,9.811219103362562,0.00010258995575702122,-0.00011258240977332238,-0.00010401665112673576,4.499072012747156e-16,1.6409004986342006e-10,-1.5670156677082371e-18,1.0
293.41,7.290281057357788,-0.019015885442559725,-0.005833679401090401,9.787766596131082,9.87220703323479e-05,3.9166934561891834e-05,0.0003862258230832355,4.3557722161605826e-16,1.6409011208218004e-10,-1.5625437137314375e-18,1.0
293.42,7.300276041030884,7.801933223544078e-05,-0.024881050894848464,9.79490613475,0.00016406071153088667,-0.00013556507067902593,1.3432751862485744e-05,4.2123292861501427e-16,1.6409017428763514e-10,-1.5558987648067104e-18,1.0
293.43,7.310209274291992,-0.0038104273749375844,-0.008289008436055961,9.800033000518459,-3.722914222691837e-05,1.660423586209024e-05,-2.802121847335251e-06,4.0688193744718533e-16,1.6409023651816432e-10,-1.5707424148428852e-18,1.0
293.44,7.320251226425171,-0.0021536299720322865,-0.005298234338773121,9.779702965402311,0.0005303979938648541,0.00039051565785048185,0.000152537945110081,3.9970809058309905e-16,1.6409029038133807e-10,-1.5817731800874308e-18,1.0
293.45,7.330311059951782,0.0037975238863133796,0.025540465150341956,9.800428186545972,-0.0002006874162890039,4.501052959037731e-05,-0.00012603609826344333,3.997061224031839e-16,1.640903525984444e-10,-1.590682386035317e-18,1.0
293.46,7.340197801589966,0.015500848185803091,-0.0043254433857223855,9.809663333696902,-6.124286141436751e-05,0.00015614106914880918,-0.0002503800541762124,-2.897511454751396e-16,1.6408852430247612e-10,-1.5987425398395198e-18,1.0
293.47,7.350285053253174,-0.008328070318887333,0.012339147354570522,9.801990442932548,-0.0006312549545033391,9.812838095564774e-07,0.00012508494620145212,-3.0410637226269406e-16,1.6408858651211364e-10,-1.6067870363579674e-18,1.0
293.48,7.3607118129730225,0.020861536117904048,0.02588470057354246,9.790966172673805,-8.640944641595454e-05,0.000176280850371743,-0.00012183286784015069,-3.1847141232816383e-16,1.6408864871074734e-10,-1.6063108359733148e-18,1.0
293.49,7.370222091674805,-0.0019124890596874129,0.01364391817173699,9.765163104500726,4.925059406304375e-05,5.186060955155245e-05,0.00017812780302690296,-3.328362889461423e-16,1.6408871092799027e-10,-1.6161534431765786e-18,1.0
293.5,7.380296945571899,0.007857753058385788,0.01838683845719877,9.80560798738051,-0.00011211176918195343,0.00011256139057621053,-0.0003874997159652444,3.350945144097922e-16,1.6408687423380236e-10,-1.6236103500311456e-18,1.0
293.51,7.390262603759766,0.009196436039137197,0.002621556015204425,9.781853623161112,0.0002366963264566502,0.00014684162394272375,0.0003226019829439951,3.2074869873854744e-16,1.6408693644254909e-10,-1.6263972020347766e-18,1.0
293.52,7.4003400802612305,0.004535223435060079,0.014853722248353476,9.819929112647612,-0.00020228808844357035,0.0001860809040710849,-6.774073428291001e-05,3.06406716223391e-16,1.6408699864784978e-10,-1.6309811712833262e-18,1.0
293.53,7.4101691246032715,-0.016125072606626507,0.010160548156938754,9.7761969982371,-0.00013488636350085208,-0.00011590772071573166,0.00011958670976793036,2.920690519472845e-16,1.640870608491233e-10,-1.6291821206394414e-18,1.0
293.54,7.420329332351685,-0.02256686997364445,0.008136812557633289,9.815887276430143,1.064263145167899e-05,-0.000544942592731923,-0.0002725624484198643,2.777311103367555e-16,1.6408712305204266e-10,-1.6303549312224404e-18,1.0
293.55,7.430334568023682,-0.013511435374151993,-0.02128880561097272,9.823964274235129,0.00012843355936741606,1.236397061507322e-05,6.931970391182582e-05,2.6340889078187197e-16,1.6408718526728335e-10,-1.6284929743684863e-18,1.0
293.56,7.440171957015991,0.03362235975995891,-0.004269356261322411,9.803753734951329,-5.436863563594065e-05,7.163120544033778e-05,-5.8099359958215104e-05,2.4906273384158014e-16,1.640872474662935e-10,-1.6403350394033589e-18,1.0
293.57,7.450498819351196,0.010443456667806954,0.02830808002217945,9.798180186570983,0.00018766781851087378,0.0001310083917972555,0.00014794354512936395,2.3471175229224e-16,1.6408730968495152e-10,-1.6477261090596963e-18,1.0
293.58,7.460285186767578,0.004077178305916458,0.01318220774935778,9.81944656637303,0.00015313071142990998,-0.000351506609571806,9.721578898639415e-05,2.2033536621579733e-16,1.6408737188038119e-10,-1.6483010114520854e-18,1.0
293.59,7.470207691192627,-0.007358889156262713,-0.02955033143831859,9.782573153901195,-0.00011657479551180637,-2.2457481658955866e-05,0.00022352103407328864,2.0597763662509552e-16,1.6408743408562336e-10,-1.6573382835318548e-18,1.0
293.6,7.480464458465576,-0.010578847160166922,0.006614500605507032,9.784347609608345,9.648874755541461e-05,0.00014426008840588133,0.00011726617563226943,-4.762969513836634e-16,1.6408939516808025e-10,-1.6615015724561797e-18,1.0
293.61,7.490349769592285,-0.011031306862770575,-0.009467977130552089,9.812117632655434,0.00025494529275839963,0.0002943817145895889,-0.00036870431227245916,-4.619354440088966e-16,1.6408945738569833e-10,-1.6683257379741504e-18,1.0
293.62,7.50032114982605,-0.012619710160172347,-0.022824016269313147,9.79093643624714,0.00015002673220223343,-0.0002269372923585491,-7.976505374320718e-05,-4.475846401864072e-16,1.6408951958358573e-10,-1.6705586910794878e-18,1.0
293.63,7.510210752487183,0.006822113857743803,-0.009166782289326398,9.795655560523764,-1.1058294478133122e-05,-3.265106307058709e-05,6.208466351847809e-05,-4.33231806001247e-16,1.6408958178234953e-10,-1.6764853945919096e-18,1.0
293.64,7.5202836990356445,-0.006681482235219766,0.029675622894979038,9.807491552218535,-0.0001775786746242281,0.00034430687907543317,0.00021737572759775593,-4.188694447747536e-16,1.6408964399724368e-10,-1.6839375682863662e-18,1.0
293.65,7.530632019042969,-0.015023971368554753,0.007617135419965469,9.789663631913164,0.00025277601399132293,2.219277683099468e-05,1.0020268170380139e-05,-4.045030979338556e-16,1.6408970621111386e-10,-1.6863095341895818e-18,1.0
293.66,7.540196180343628,-0.012634130650873187,0.02163475809599955,9.830366768942508,-0.0002953622406421945,-0.00011246216536974955,-0.00020633599506757677,-3.90123279024693e-16,1.6408976841745926e-10,-1.6882550522869512e-18,1.0
293.67,7.55026650428772,-0.00012175558100751291,-0.003810837801223737,9.826530686881782,0.0002566929844002434,-0.00011997922138910412,-0.0003498861540520632,-3.757379690620975e-16,1.6408983059302896e-10,-1.6828037156493391e-18,1.0
293.68,7.5603015422821045,-0.016911784041774257,-0.03350953321017077,9.817639477218,2.387914721538158e-06,-3.186136267864502e-06,0.0003087083979634899,-3.6136432920818163e-16,1.640898928112672e-10,-1.6795594446952573e-18,1.0
293.69,7.570175886154175,0.03453102894857781,0.01072401865213141,9.80504881301822,0.0003404874752930398,0.00022304722911159204,-0.00018596958698460442,-3.469980449399298e-16,1.6408995502164324e-10,-1.6819386444521129e-18,1.0
293.7,7.580276727676392,-0.008927578406234742,-0.0069126701986744355,9.810719000272615,-5.80733575739299e-06,3.9264148193677655e-05,-0.00027266455294598294,-3.326209291683996e-16,1.6409001721658243e-10,-1.6887700984270374e-18,1.0
293.71,7.590322732925415,0.010266477472095754,-0.006175768875042904,9.8126642363513,0.00030031744226043794,1.4195604093210583e-05,-0.00023328010559352233,-3.182642393155384e-16,1.6409007942787266e-10,-1.7021514142620357e-18,1.0
293.72,7.600287199020386,0.015228994228927418,0.0017795722055618604,9.807432117836125,-0.00013783660456101796,-0.00029532842176725304,0.00017403830606817043,-3.039167047649818e-16,1.6409014164994336e-10,-1.7074758640371501e-18,1.0
